#Time		#Wave		#Intensity
0.000000	1722.566406	30.844776
0.000000	1721.590820	33.415173
0.000000	1720.613281	41.118038
0.000000	1719.636719	25.693569
0.000000	1718.659180	33.394875
0.000000	1717.682617	38.524738
0.000000	1716.705078	35.949131
0.000000	1715.727539	28.240019
0.000000	1714.749023	30.801044
0.000000	1713.771484	35.927261
0.000000	1712.792969	38.485680
0.000000	1711.814453	28.217102
0.000000	1710.835938	30.776043
0.000000	1709.856445	38.462238
0.000000	1708.877930	35.890797
0.000000	1707.898438	35.883499
0.000000	1706.918945	35.876205
0.000000	1705.939453	38.430973
0.000000	1704.958984	35.861614
0.000000	1703.979492	35.854317
0.000000	1702.999023	48.649525
0.000000	1702.018555	43.519661
0.000000	1701.038086	33.272961
0.000000	1700.056641	30.707247
0.000000	1699.076172	38.376236
0.000000	1698.094727	51.157887
0.000000	1697.113281	46.032711
0.000000	1696.131836	38.352768
0.000000	1695.149414	46.013935
0.000000	1694.167969	35.781311
0.000000	1693.185547	33.218723
0.000000	1692.203125	30.657175
0.000000	1691.219727	35.759399
0.000000	1690.237305	35.752094
0.000000	1689.253906	28.085192
0.000000	1688.270508	43.395515
0.000000	1687.287109	51.043110
0.000000	1686.303711	35.722870
0.000000	1685.320313	45.920010
0.000000	1684.335938	33.157665
0.000000	1683.351563	33.150879
0.000000	1682.367188	30.594547
0.000000	1681.382813	38.235352
0.000000	1680.397461	35.679020
0.000000	1679.412109	43.315647
0.000000	1678.426758	40.759312
0.000000	1677.441406	40.750957
0.000000	1676.456055	35.649776
0.000000	1675.469727	30.550682
0.000000	1674.483398	33.089783
0.000000	1673.497070	25.448454
0.000000	1672.510742	43.253494
0.000000	1671.524414	30.525608
0.000000	1670.537109	33.062618
0.000000	1669.549805	35.598579
0.000000	1668.562500	40.675732
0.000000	1667.575195	40.667370
0.000000	1666.587891	38.117821
0.000000	1665.599609	33.028652
0.000000	1664.611328	45.722572
0.000000	1663.623047	30.475443
0.000000	1662.634766	43.164658
0.000000	1661.646484	53.310070
0.000000	1660.657227	48.222988
0.000000	1659.667969	50.750584
0.000000	1658.678711	43.129108
0.000000	1657.689453	53.266155
0.000000	1656.699219	45.647293
0.000000	1655.708984	27.889816
0.000000	1654.718750	30.418980
0.000000	1653.728516	48.153450
0.000000	1652.738281	45.609642
0.000000	1651.747070	45.600231
0.000000	1650.756836	48.123638
0.000000	1649.765625	50.646000
0.000000	1648.773438	27.849546
0.000000	1647.782227	35.437553
0.000000	1646.790039	35.430233
0.000000	1645.798828	53.134361
0.000000	1644.806641	40.474953
0.000000	1643.813477	42.995743
0.000000	1642.821289	50.572762
0.000000	1641.828125	42.977955
0.000000	1640.834961	48.024242
0.000000	1639.841797	45.487232
0.000000	1638.848633	53.057449
0.000000	1637.854492	53.046459
0.000000	1636.861328	45.458973
0.000000	1635.867188	42.924580
0.000000	1634.873047	47.964584
0.000000	1633.877930	35.334999
0.000000	1632.883789	63.085125
0.000000	1631.888672	47.934750
0.000000	1630.893555	55.491879
0.000000	1629.898438	50.436695
0.000000	1628.902344	57.990158
0.000000	1627.907227	50.415752
0.000000	1626.911133	63.006603
0.000000	1625.915039	42.835590
0.000000	1624.918945	47.865124
0.000000	1623.921875	55.411259
0.000000	1622.924805	45.327057
0.000000	1621.928711	45.317635
0.000000	1620.930664	60.410946
0.000000	1619.933594	52.848579
0.000000	1618.936523	47.805431
0.000000	1617.938477	35.217724
0.000000	1616.940430	52.815590
0.000000	1615.942383	55.319096
0.000000	1614.943359	42.737671
0.000000	1613.945313	50.269138
0.000000	1612.946289	40.206932
0.000000	1611.947266	32.661324
0.000000	1610.948242	35.166401
0.000000	1609.948242	42.693153
0.000000	1608.949219	47.705925
0.000000	1607.949219	45.185658
0.000000	1606.949219	47.686020
0.000000	1605.948242	35.129734
0.000000	1604.948242	50.174854
0.000000	1603.947266	42.639721
0.000000	1602.946289	47.646206
0.000000	1601.945313	42.621910
0.000000	1600.944336	45.119652
0.000000	1599.942383	42.604095
0.000000	1598.940430	35.078392
0.000000	1597.938477	45.091358
0.000000	1596.936523	37.568272
0.000000	1595.934570	42.568470
0.000000	1594.931641	52.573578
0.000000	1593.928711	50.059593
0.000000	1592.925781	52.551571
0.000000	1591.922852	52.540565
0.000000	1590.918945	35.019707
0.000000	1589.915039	42.515022
0.000000	1588.911133	55.007912
0.000000	1587.907227	47.496880
0.000000	1586.903320	57.484169
0.000000	1585.898438	52.474541
0.000000	1584.894531	57.460060
0.000000	1583.889648	64.941231
0.000000	1582.883789	57.435955
0.000000	1581.878906	49.933826
0.000000	1580.873047	62.404182
0.000000	1579.867188	47.417221
0.000000	1578.861328	49.902382
0.000000	1577.855469	49.891903
0.000000	1576.848633	47.387348
0.000000	1575.842773	32.416107
0.000000	1574.835938	34.902317
0.000000	1573.828125	52.342472
0.000000	1572.821289	44.855541
0.000000	1571.813477	42.354656
0.000000	1570.805664	37.363895
0.000000	1569.797852	47.317642
0.000000	1568.790039	54.777317
0.000000	1567.782227	49.787079
0.000000	1566.773438	24.888298
0.000000	1565.764648	29.859667
0.000000	1564.755859	44.780067
0.000000	1563.747070	39.796116
0.000000	1562.737305	39.787731
0.000000	1561.727539	44.751762
0.000000	1560.717773	27.342533
0.000000	1559.708008	44.732891
0.000000	1558.697266	39.754185
0.000000	1557.687500	39.745796
0.000000	1556.676758	37.253822
0.000000	1555.666016	47.178215
0.000000	1554.654297	37.238098
0.000000	1553.643555	44.676281
0.000000	1552.631836	62.037285
0.000000	1551.620117	39.695477
0.000000	1550.608398	42.167534
0.000000	1549.596680	44.638542
0.000000	1548.583984	47.108501
0.000000	1547.571289	49.577412
0.000000	1546.558594	39.653542
0.000000	1545.545898	34.689510
0.000000	1544.532227	39.636768
0.000000	1543.518555	59.442574
0.000000	1542.504883	49.524994
0.000000	1541.491211	39.611610
0.000000	1540.477539	47.028828
0.000000	1539.462891	61.866932
0.000000	1538.448242	39.586449
0.000000	1537.433594	42.051693
0.000000	1536.418945	42.042782
0.000000	1535.404297	46.979031
0.000000	1534.388672	51.913185
0.000000	1533.373047	29.658388
0.000000	1532.357422	34.594116
0.000000	1531.340820	39.527744
0.000000	1530.325195	59.279037
0.000000	1529.308594	37.041538
0.000000	1528.291992	41.971497
0.000000	1527.275391	51.836136
0.000000	1526.257813	54.292995
0.000000	1525.240234	39.477428
0.000000	1524.223633	49.336304
0.000000	1523.205078	39.460655
0.000000	1522.187500	32.054970
0.000000	1521.168945	44.374371
0.000000	1520.151367	32.041344
0.000000	1519.132813	54.212284
0.000000	1518.113281	59.128094
0.000000	1517.094727	41.873489
0.000000	1516.075195	36.939335
0.000000	1515.055664	39.393574
0.000000	1514.036133	39.385189
0.000000	1513.016602	34.454704
0.000000	1511.996094	51.671051
0.000000	1510.975586	41.820038
0.000000	1509.955078	36.892170
0.000000	1508.934570	34.425358
0.000000	1507.914063	36.876450
0.000000	1506.892578	36.868591
0.000000	1505.871094	44.232876
0.000000	1504.849609	46.680302
0.000000	1503.827148	44.214012
0.000000	1502.805664	49.116203
0.000000	1501.783203	39.284576
0.000000	1500.760742	39.276196
0.000000	1499.738281	44.176289
0.000000	1498.714844	36.805714
0.000000	1497.691406	29.438284
0.000000	1496.668945	46.600662
0.000000	1495.644531	46.590706
0.000000	1494.621094	31.871040
0.000000	1493.596680	36.766418
0.000000	1492.573242	34.307991
0.000000	1491.547852	26.950516
0.000000	1490.523438	41.641891
0.000000	1489.499023	34.285988
0.000000	1488.473633	46.521030
0.000000	1487.448242	39.167225
0.000000	1486.422852	34.263985
0.000000	1485.396484	56.278786
0.000000	1484.371094	44.034840
0.000000	1483.344727	39.133698
0.000000	1482.318359	41.570652
0.000000	1481.291992	41.561745
0.000000	1480.264648	43.997128
0.000000	1479.237305	39.100178
0.000000	1478.209961	43.978271
0.000000	1477.182617	41.526131
0.000000	1476.155273	34.190659
0.000000	1475.126953	36.624992
0.000000	1474.098633	34.175995
0.000000	1473.070313	34.168663
0.000000	1472.041992	39.041523
0.000000	1471.012695	34.153999
0.000000	1469.983398	31.707621
0.000000	1468.954102	36.577862
0.000000	1467.924805	51.198009
0.000000	1466.895508	51.187016
0.000000	1465.865234	34.117348
0.000000	1464.834961	53.601456
0.000000	1463.804688	41.410404
0.000000	1462.773438	41.401505
0.000000	1461.743164	36.522884
0.000000	1460.711914	41.383705
0.000000	1459.680664	46.242428
0.000000	1458.649414	38.932617
0.000000	1457.617188	43.789772
0.000000	1456.584961	34.051380
0.000000	1455.552734	36.475773
0.000000	1454.520508	46.192699
0.000000	1453.488281	34.029396
0.000000	1452.455078	36.452217
0.000000	1451.421875	46.162865
0.000000	1450.388672	38.865616
0.000000	1449.355469	36.428665
0.000000	1448.321289	67.985519
0.000000	1447.288086	43.695557
0.000000	1446.253906	38.832123
0.000000	1445.218750	43.676716
0.000000	1444.184570	41.241337
0.000000	1443.149414	43.657879
0.000000	1442.114258	33.948803
0.000000	1441.079102	48.487823
0.000000	1440.043945	41.205753
0.000000	1439.007813	43.620205
0.000000	1437.971680	36.342323
0.000000	1436.935547	31.489878
0.000000	1435.899414	50.857277
0.000000	1434.862305	26.633772
0.000000	1433.826172	38.731663
0.000000	1432.789063	31.462675
0.000000	1431.750977	41.134605
0.000000	1430.713867	43.544872
0.000000	1429.675781	36.279545
0.000000	1428.637695	41.107925
0.000000	1427.599609	36.263855
0.000000	1426.561523	53.175480
0.000000	1425.522461	36.248165
0.000000	1424.483398	41.072361
0.000000	1423.444336	33.816978
0.000000	1422.405273	36.224632
0.000000	1421.365234	36.216785
0.000000	1420.326172	43.450733
0.000000	1419.286133	36.201099
0.000000	1418.245117	36.193256
0.000000	1417.205078	43.422497
0.000000	1416.164063	28.942057
0.000000	1415.123047	36.169727
0.000000	1414.082031	50.626640
0.000000	1413.041016	45.795120
0.000000	1411.999023	36.146202
0.000000	1410.957031	50.593704
0.000000	1409.915039	48.174026
0.000000	1408.873047	48.163570
0.000000	1407.831055	40.930149
0.000000	1406.788086	40.921265
0.000000	1405.745117	55.352043
0.000000	1404.702148	40.903492
0.000000	1403.658203	55.327999
0.000000	1402.614258	48.100853
0.000000	1401.571289	60.113003
0.000000	1400.526367	60.099937
0.000000	1399.482422	43.262547
0.000000	1398.437500	48.059048
0.000000	1397.393555	40.841309
0.000000	1396.347656	48.038147
0.000000	1395.302734	48.027699
0.000000	1394.257813	57.620697
0.000000	1393.211914	48.006802
0.000000	1392.166016	45.596535
0.000000	1391.120117	67.180267
0.000000	1390.073242	28.785273
0.000000	1389.026367	43.168507
0.000000	1387.979492	50.352291
0.000000	1386.932617	55.135731
0.000000	1385.885742	55.123718
0.000000	1384.837891	45.527061
0.000000	1383.790039	31.143307
0.000000	1382.742188	40.716984
0.000000	1381.694336	50.286484
0.000000	1380.645508	45.487373
0.000000	1379.596680	55.051651
0.000000	1378.547852	35.895420
0.000000	1377.499023	40.672600
0.000000	1376.450195	55.015625
0.000000	1375.400391	47.829231
0.000000	1374.350586	43.036911
0.000000	1373.300781	40.637096
0.000000	1372.250000	45.408012
0.000000	1371.199219	45.398094
0.000000	1370.148438	42.999325
0.000000	1369.097656	47.766586
0.000000	1368.046875	50.143955
0.000000	1366.995117	47.745708
0.000000	1365.943359	59.669090
0.000000	1364.891602	50.111076
0.000000	1363.839844	57.257275
0.000000	1362.787109	54.859554
0.000000	1361.735352	52.462875
0.000000	1360.682617	50.067242
0.000000	1359.628906	47.672649
0.000000	1358.576172	47.662216
0.000000	1357.522461	38.121426
0.000000	1356.468750	42.877213
0.000000	1355.415039	45.249367
0.000000	1354.360352	50.001503
0.000000	1353.306641	35.707535
0.000000	1352.251953	45.219631
0.000000	1351.196289	47.589180
0.000000	1350.141602	38.062996
0.000000	1349.085938	45.189899
0.000000	1348.030273	40.424202
0.000000	1346.974609	35.660591
0.000000	1345.918945	47.537022
0.000000	1344.862305	47.526592
0.000000	1343.806641	35.637123
0.000000	1342.749023	54.631596
0.000000	1341.692383	54.619602
0.000000	1340.635742	47.484879
0.000000	1339.578125	52.221897
0.000000	1338.520508	35.598019
0.000000	1337.462891	30.844837
0.000000	1336.404297	45.071011
0.000000	1335.345703	40.317833
0.000000	1334.287109	35.566738
0.000000	1333.228516	47.411892
0.000000	1332.169922	45.031395
0.000000	1331.110352	40.282387
0.000000	1330.050781	35.535465
0.000000	1328.991211	35.527649
0.000000	1327.930664	42.623798
0.000000	1326.871094	33.144547
0.000000	1325.810547	42.605038
0.000000	1324.750000	42.595657
0.000000	1323.688477	40.220375
0.000000	1322.627930	42.576900
0.000000	1321.566406	47.297245
0.000000	1320.504883	49.651165
0.000000	1319.443359	40.184944
0.000000	1318.380859	37.812790
0.000000	1317.318359	47.255569
0.000000	1316.255859	49.607407
0.000000	1315.193359	42.511257
0.000000	1314.129883	40.140667
0.000000	1313.067383	49.574593
0.000000	1312.003906	47.203480
0.000000	1310.939453	58.991333
0.000000	1309.875977	44.823517
0.000000	1308.811523	47.172234
0.000000	1307.747070	35.371365
0.000000	1306.682617	33.005985
0.000000	1305.617188	44.783943
0.000000	1304.552734	32.991405
0.000000	1303.487305	47.120167
0.000000	1302.421875	49.465240
0.000000	1301.355469	44.744373
0.000000	1300.290039	28.253357
0.000000	1299.223633	32.954964
0.000000	1298.157227	42.361298
0.000000	1297.089844	37.646156
0.000000	1296.023438	37.637829
0.000000	1294.956055	44.685032
0.000000	1293.888672	35.269852
0.000000	1292.820313	39.963650
0.000000	1291.752930	56.406780
0.000000	1290.684570	37.596195
0.000000	1289.616211	42.286354
0.000000	1288.546875	37.579544
0.000000	1287.478516	56.356827
0.000000	1286.409180	42.258255
0.000000	1285.339844	37.554569
0.000000	1284.270508	42.239525
0.000000	1283.200195	28.153440
0.000000	1282.129883	44.566399
0.000000	1281.059570	32.831116
0.000000	1279.989258	32.823833
0.000000	1278.918945	37.504631
0.000000	1277.847656	46.870384
0.000000	1276.776367	30.458988
0.000000	1275.705078	39.822144
0.000000	1274.632813	37.471344
0.000000	1273.561523	42.145901
0.000000	1272.489258	58.522972
0.000000	1271.416016	44.467579
0.000000	1270.343750	37.438061
0.000000	1269.270508	39.769100
0.000000	1268.197266	35.082584
0.000000	1267.124023	35.074787
0.000000	1266.050781	56.107178
0.000000	1264.976563	39.733749
0.000000	1263.902344	42.061668
0.000000	1262.828125	44.388554
0.000000	1261.753906	46.714394
0.000000	1260.678711	42.033600
0.000000	1259.603516	39.689564
0.000000	1258.528320	49.017368
0.000000	1257.452148	37.338253
0.000000	1256.376953	46.662418
0.000000	1255.300781	46.652027
0.000000	1254.224609	30.317060
0.000000	1253.147461	30.310307
0.000000	1252.071289	51.282932
0.000000	1250.994141	37.288364
0.000000	1249.916992	32.620045
0.000000	1248.839844	37.271736
0.000000	1247.761719	37.263424
0.000000	1246.683594	44.240444
0.000000	1245.605469	39.574726
0.000000	1244.527344	34.911083
0.000000	1243.448242	39.557064
0.000000	1242.369141	37.221867
0.000000	1241.290039	23.258472
0.000000	1240.210938	32.554588
0.000000	1239.130859	44.171360
0.000000	1238.050781	51.134357
0.000000	1236.970703	46.475395
0.000000	1235.890625	34.848755
0.000000	1234.810547	41.809158
0.000000	1233.729492	51.088657
0.000000	1232.648438	44.112156
0.000000	1231.566406	55.708157
0.000000	1230.485352	44.092426
0.000000	1229.403320	30.161753
0.000000	1228.321289	34.794235
0.000000	1227.239258	37.105541
0.000000	1226.156250	46.371544
0.000000	1225.073242	37.088932
0.000000	1223.990234	37.080624
0.000000	1222.907227	41.706360
0.000000	1221.823242	39.380516
0.000000	1220.740234	39.371693
0.000000	1219.656250	34.731941
0.000000	1218.571289	32.409214
0.000000	1217.487305	48.602921
0.000000	1216.402344	37.022491
0.000000	1215.317383	37.014191
0.000000	1214.232422	41.631622
0.000000	1213.146484	50.871677
0.000000	1212.060547	39.301109
0.000000	1210.974609	55.471466
0.000000	1209.888672	39.283470
0.000000	1208.802734	30.033554
0.000000	1207.715820	36.956074
0.000000	1206.628906	36.947773
0.000000	1205.541992	43.865623
0.000000	1204.454102	34.622974
0.000000	1203.366211	36.922871
0.000000	1202.278320	36.914570
0.000000	1201.190430	39.212914
0.000000	1200.101563	41.510220
0.000000	1199.013672	41.500881
0.000000	1197.924805	36.881374
0.000000	1196.834961	46.091343
0.000000	1195.746094	48.385021
0.000000	1194.656250	32.249420
0.000000	1193.566406	43.757217
0.000000	1192.476563	41.444870
0.000000	1191.385742	43.737511
0.000000	1190.294922	52.933479
0.000000	1189.204102	57.523426
0.000000	1188.113281	43.707954
0.000000	1187.021484	48.297901
0.000000	1185.930664	59.783920
0.000000	1184.838867	41.379536
0.000000	1183.746094	41.370205
0.000000	1182.654297	45.956524
0.000000	1181.561523	55.135387
0.000000	1180.468750	41.342209
0.000000	1179.375977	55.110504
0.000000	1178.282227	50.506557
0.000000	1177.188477	52.790386
0.000000	1176.094727	43.599602
0.000000	1175.000977	59.649136
0.000000	1173.906250	48.167263
0.000000	1172.811523	64.208504
0.000000	1171.716797	57.316067
0.000000	1170.622070	50.426739
0.000000	1169.526367	38.957306
0.000000	1168.431641	59.568287
0.000000	1167.334961	59.554813
0.000000	1166.239258	48.091080
0.000000	1165.143555	41.211601
0.000000	1164.046875	29.757196
0.000000	1162.950195	43.481441
0.000000	1161.852539	54.911491
0.000000	1160.755859	50.324135
0.000000	1159.658203	45.738850
0.000000	1158.560547	34.296368
0.000000	1157.461914	38.860409
0.000000	1156.364258	41.136990
0.000000	1155.265625	50.267143
0.000000	1154.166992	43.402691
0.000000	1153.067383	47.960518
0.000000	1151.967773	36.533058
0.000000	1150.869141	45.655960
0.000000	1149.768555	34.234200
0.000000	1148.668945	45.635242
0.000000	1147.568359	47.906128
0.000000	1146.467773	38.772346
0.000000	1145.367188	31.922915
0.000000	1144.266602	31.915665
0.000000	1143.165039	31.908413
0.000000	1142.063477	34.179817
0.000000	1140.961914	38.728321
0.000000	1139.859375	29.609043
0.000000	1138.757813	29.602310
0.000000	1137.655273	43.255077
0.000000	1136.551758	31.864912
0.000000	1135.449219	47.786491
0.000000	1134.345703	34.125443
0.000000	1133.242188	47.764744
0.000000	1132.138672	34.109909
0.000000	1131.034180	45.469521
0.000000	1129.929688	50.005081
0.000000	1128.825195	36.359047
0.000000	1127.720703	52.254223
0.000000	1126.616211	52.242313
0.000000	1125.510742	38.605083
0.000000	1124.405273	40.866650
0.000000	1123.298828	36.317631
0.000000	1122.193359	47.656017
0.000000	1121.086914	45.376328
0.000000	1119.980469	36.292778
0.000000	1118.873047	38.552277
0.000000	1117.766602	27.207161
0.000000	1116.659180	38.534676
0.000000	1115.551758	45.324562
0.000000	1114.443359	38.517078
0.000000	1113.335938	40.773472
0.000000	1112.227539	38.499477
0.000000	1111.118164	47.547310
0.000000	1110.009766	52.063721
0.000000	1108.900391	47.525570
0.000000	1107.791016	38.464283
0.000000	1106.681641	49.765919
0.000000	1105.572266	33.923546
0.000000	1104.461914	24.871572
0.000000	1103.351563	29.386950
0.000000	1102.241211	40.680305
0.000000	1101.129883	38.411491
0.000000	1100.018555	29.366766
0.000000	1098.907227	47.427753
0.000000	1097.795898	33.869205
0.000000	1096.683594	42.891159
0.000000	1095.572266	36.110592
0.000000	1094.458984	22.563944
0.000000	1093.346680	24.814646
0.000000	1092.234375	33.830391
0.000000	1091.121094	33.822628
0.000000	1090.006836	33.814869
0.000000	1088.893555	42.822334
0.000000	1087.779297	33.799343
0.000000	1086.666016	40.549900
0.000000	1085.550781	40.540585
0.000000	1084.436523	42.783009
0.000000	1083.321289	47.275616
0.000000	1082.206055	38.261940
0.000000	1081.090820	40.503330
0.000000	1079.974609	38.244350
0.000000	1078.859375	24.740652
0.000000	1077.743164	40.475391
0.000000	1076.625977	42.714191
0.000000	1075.509766	33.713970
0.000000	1074.392578	42.694530
0.000000	1073.275391	26.958759
0.000000	1072.158203	44.920918
0.000000	1071.040039	38.173985
0.000000	1069.921875	42.655209
0.000000	1068.803711	35.911900
0.000000	1067.685547	33.659645
0.000000	1066.566406	35.895344
0.000000	1065.447266	35.887066
0.000000	1064.328125	29.151514
0.000000	1063.208008	49.321949
0.000000	1062.088867	38.103622
0.000000	1060.968750	51.540058
0.000000	1059.847656	44.807095
0.000000	1058.727539	42.556911
0.000000	1057.606445	31.350481
0.000000	1056.485352	38.059647
0.000000	1055.364258	33.574280
0.000000	1054.242188	26.853216
0.000000	1053.120117	31.321510
0.000000	1051.998047	35.787735
0.000000	1050.875977	38.015671
0.000000	1049.752930	38.006878
0.000000	1048.629883	37.998081
0.000000	1047.506836	40.223953
0.000000	1046.383789	33.512199
0.000000	1045.259766	44.672588
0.000000	1044.135742	44.662239
0.000000	1043.011719	29.023731
0.000000	1041.886719	37.945313
0.000000	1040.762695	44.631199
0.000000	1039.637695	35.696682
0.000000	1038.511719	44.610504
0.000000	1037.386719	33.450119
0.000000	1036.260742	44.589813
0.000000	1035.134766	42.350491
0.000000	1034.007813	31.198383
0.000000	1032.881836	28.963202
0.000000	1031.754883	40.093582
0.000000	1030.627930	40.084270
0.000000	1029.500000	22.263865
0.000000	1028.372070	40.065643
0.000000	1027.245117	37.830978
0.000000	1026.116211	33.372517
0.000000	1024.988281	53.383610
0.000000	1023.859375	33.356995
0.000000	1022.730469	35.572517
0.000000	1021.601563	37.787003
0.000000	1020.471680	35.555962
0.000000	1019.341797	42.212872
0.000000	1018.211914	42.203041
0.000000	1017.082031	37.751820
0.000000	1015.951172	39.963203
0.000000	1014.820313	31.075247
0.000000	1013.689453	48.821148
0.000000	1012.557617	42.153889
0.000000	1011.426758	46.580273
0.000000	1010.293945	39.916634
0.000000	1009.162109	37.690247
0.000000	1008.030273	46.547676
0.000000	1006.897461	39.888695
0.000000	1005.764648	35.448338
0.000000	1004.630859	31.010050
0.000000	1003.498047	48.718697
0.000000	1002.364258	44.279373
0.000000	1001.230469	42.055573
0.000000	1000.095703	35.406940
0.000000	998.960938	35.398659
0.000000	997.826172	26.542784
0.000000	996.691406	35.382099
0.000000	995.556641	46.428139
0.000000	994.420898	39.786232
0.000000	993.285156	44.196571
0.000000	992.148438	46.395535
0.000000	991.012695	39.758286
0.000000	989.875977	33.124142
0.000000	988.739258	39.739651
0.000000	987.601563	26.486891
0.000000	986.463867	39.721020
0.000000	985.326172	39.711700
0.000000	984.188477	37.496696
0.000000	983.049805	44.103409
0.000000	981.912109	33.069794
0.000000	980.773438	30.857893
0.000000	979.633789	39.665115
0.000000	978.495117	37.452698
0.000000	977.355469	37.443897
0.000000	976.214844	33.030968
0.000000	975.075195	37.426296
0.000000	973.934570	37.417496
0.000000	972.793945	30.807159
0.000000	971.653320	39.599884
0.000000	970.511719	30.792662
0.000000	969.370117	48.377079
0.000000	968.228516	46.167248
0.000000	967.086914	37.364685
0.000000	965.944336	37.355881
0.000000	964.801758	30.756418
0.000000	963.659180	46.123753
0.000000	962.516602	41.721176
0.000000	961.373047	35.125336
0.000000	960.229492	32.922234
0.000000	959.084961	32.914467
0.000000	957.941406	26.325357
0.000000	956.796875	41.671978
0.000000	955.652344	37.276649
0.000000	954.506836	48.228973
0.000000	953.362305	32.875622
0.000000	952.216797	50.397373
0.000000	951.070313	28.478737
0.000000	949.924805	39.422775
0.000000	948.778320	43.792721
0.000000	947.631836	35.025890
0.000000	946.485352	45.960602
0.000000	945.337891	32.821228
0.000000	944.190430	39.376148
0.000000	943.042969	30.618641
0.000000	941.894531	43.730553
0.000000	940.747070	39.348171
0.000000	939.597656	37.153351
0.000000	938.449219	39.329517
0.000000	937.300781	52.426918
0.000000	936.151367	52.414482
0.000000	935.001953	43.668369
0.000000	933.851563	41.475105
0.000000	932.701172	41.465256
0.000000	931.550781	54.546593
0.000000	930.400391	34.901524
0.000000	929.250000	39.254887
0.000000	928.098633	52.327408
0.000000	926.947266	37.056435
0.000000	925.794922	47.943981
0.000000	924.642578	54.468838
0.000000	923.490234	43.564701
0.000000	922.337891	60.976063
0.000000	921.185547	45.721161
0.000000	920.032227	52.240311
0.000000	918.878906	65.284828
0.000000	917.724609	45.688492
0.000000	916.571289	47.852726
0.000000	915.416992	56.539738
0.000000	914.262695	45.655819
0.000000	913.107422	56.512768
0.000000	911.952148	39.114887
0.000000	910.796875	41.278084
0.000000	909.641602	39.096214
0.000000	908.485352	45.601357
0.000000	907.329102	32.564617
0.000000	906.172852	39.068203
0.000000	905.016602	30.379116
0.000000	903.859375	45.557777
0.000000	902.702148	36.871284
0.000000	901.544922	32.525703
0.000000	900.386719	41.189365
0.000000	899.228516	41.179504
0.000000	898.070313	41.169647
0.000000	896.911133	41.159786
0.000000	895.752930	32.486782
0.000000	894.593750	47.635860
0.000000	893.433594	45.459694
0.000000	892.274414	51.941475
0.000000	891.114258	45.437889
0.000000	889.954102	47.590179
0.000000	888.792969	41.090744
0.000000	887.632813	34.594425
0.000000	886.470703	41.071014
0.000000	885.309570	36.738922
0.000000	884.148438	30.248312
0.000000	882.986328	41.041412
0.000000	881.824219	49.669765
0.000000	880.661133	34.544567
0.000000	879.498047	38.853291
0.000000	878.334961	51.791920
0.000000	877.171875	45.307022
0.000000	876.007813	40.982197
0.000000	874.843750	38.815887
0.000000	873.679688	40.962452
0.000000	872.515625	51.729572
0.000000	871.350586	38.787827
0.000000	870.185547	40.932831
0.000000	869.020508	49.538319
0.000000	867.854492	38.759762
0.000000	866.688477	32.292004
0.000000	865.522461	49.502453
0.000000	864.356445	47.338734
0.000000	863.189453	58.083504
0.000000	862.022461	34.411533
0.000000	860.854492	36.553417
0.000000	859.687500	47.292980
0.000000	858.519531	42.983219
0.000000	857.351563	42.972816
0.000000	856.182617	38.666176
0.000000	855.013672	40.804413
0.000000	853.844727	51.529934
0.000000	852.675781	47.224327
0.000000	851.505859	49.358921
0.000000	850.335938	42.910397
0.000000	849.166016	53.624989
0.000000	847.995117	51.467499
0.000000	846.825195	42.879177
0.000000	845.653320	45.012207
0.000000	844.482422	38.572521
0.000000	843.310547	64.271927
0.000000	842.138672	47.121292
0.000000	840.966797	55.675266
0.000000	839.793945	44.957550
0.000000	838.622070	47.086933
0.000000	837.448242	47.075478
0.000000	836.275391	47.064022
0.000000	835.101563	47.052563
0.000000	833.927734	42.764641
0.000000	832.753906	36.341091
0.000000	831.579102	53.429760
0.000000	830.404297	47.006725
0.000000	829.229492	46.995266
0.000000	828.054688	38.441292
0.000000	826.878906	46.972340
0.000000	825.703125	51.230045
0.000000	824.526367	64.021927
0.000000	823.350586	49.071487
0.000000	822.173828	44.793457
0.000000	820.996094	49.047508
0.000000	819.819336	55.431458
0.000000	818.641602	40.497696
0.000000	817.463867	42.618729
0.000000	816.285156	25.564980
0.000000	815.107422	46.857655
0.000000	813.928711	42.587437
0.000000	812.749023	53.221256
0.000000	811.570313	42.566574
0.000000	810.390625	63.834209
0.000000	809.209961	51.054848
0.000000	808.030273	51.042324
0.000000	806.849609	48.903561
0.000000	805.668945	51.017277
0.000000	804.488281	38.253563
0.000000	803.306641	46.742870
0.000000	802.125000	57.352158
0.000000	800.943359	53.090797
0.000000	799.760742	70.062622
0.000000	798.578125	53.064693
0.000000	797.395508	50.929573
0.000000	796.211914	61.524754
0.000000	795.029297	55.146545
0.000000	793.844727	44.530472
0.000000	792.661133	36.039597
0.000000	791.476563	40.269623
0.000000	790.291992	55.092216
0.000000	789.107422	42.368176
0.000000	787.922852	50.829269
0.000000	786.737305	52.934090
0.000000	785.550781	42.336819
0.000000	784.365234	38.093727
0.000000	783.178711	55.010677
0.000000	781.992188	57.112358
0.000000	780.805664	52.868740
0.000000	779.618164	42.284531
0.000000	778.430664	48.615185
0.000000	777.243164	46.489971
0.000000	776.054688	40.140491
0.000000	774.866211	48.579086
0.000000	773.677734	40.120609
0.000000	772.489258	50.666107
0.000000	771.299805	54.874676
0.000000	770.110352	59.081150
0.000000	768.919922	48.518906
0.000000	767.730469	44.288876
0.000000	766.540039	46.386353
0.000000	765.348633	50.590725
0.000000	764.158203	40.041042
0.000000	762.966797	58.993187
0.000000	761.774414	50.553017
0.000000	760.583008	56.858002
0.000000	759.390625	48.422543
0.000000	758.198242	58.934513
0.000000	757.005859	50.502720
0.000000	755.812500	39.971363
0.000000	754.619141	52.580795
0.000000	753.424805	56.773106
0.000000	752.231445	58.861137
0.000000	751.037109	56.744797
0.000000	749.842773	63.034042
0.000000	748.647461	63.018311
0.000000	747.452148	56.702316
0.000000	746.256836	37.792103
0.000000	745.060547	46.178806
0.000000	743.865234	41.970242
0.000000	742.668945	44.057732
0.000000	741.471680	48.241638
0.000000	740.274414	39.841816
0.000000	739.077148	60.795967
0.000000	737.879883	35.630093
0.000000	736.681641	44.002617
0.000000	735.484375	48.181263
0.000000	734.285156	48.169186
0.000000	733.086914	60.719826
0.000000	731.887695	58.611332
0.000000	730.688477	54.411148
0.000000	729.488281	58.581909
0.000000	728.288086	60.658878
0.000000	727.087891	66.917122
0.000000	725.887695	83.625374
0.000000	724.686523	68.973587
0.000000	723.485352	60.597904
0.000000	722.284180	52.226425
0.000000	721.082031	62.655933
0.000000	719.879883	56.376141
0.000000	718.677734	52.186977
0.000000	717.474609	54.260780
0.000000	716.272461	62.592808
0.000000	715.068359	58.405220
0.000000	713.865234	60.475857
0.000000	712.661133	60.460590
0.000000	711.457031	58.361004
0.000000	710.251953	58.346260
0.000000	709.047852	39.582100
0.000000	707.842773	54.151287
0.000000	706.636719	60.384239
0.000000	705.431641	58.287273
0.000000	704.225586	58.272522
0.000000	703.018555	39.532055
0.000000	701.812500	64.483330
0.000000	700.605469	62.387413
0.000000	699.397461	58.213493
0.000000	698.190430	58.198730
0.000000	696.982422	47.793972
0.000000	695.774414	51.936783
0.000000	694.565430	56.077488
0.000000	693.356445	43.604744
0.000000	692.147461	43.593666
0.000000	690.938477	51.884029
0.000000	689.728516	43.571503
0.000000	688.518555	49.783337
0.000000	687.308594	62.213333
0.000000	686.097656	58.050995
0.000000	684.886719	55.963486
0.000000	683.674805	53.877033
0.000000	682.463867	53.863300
0.000000	681.251953	41.422741
0.000000	680.040039	62.118263
0.000000	678.827148	62.102409
0.000000	677.614258	45.530140
0.000000	676.401367	64.139725
0.000000	675.187500	51.712364
0.000000	673.973633	59.971012
0.000000	672.759766	57.888237
0.000000	671.545898	45.471981
0.000000	670.331055	37.194824
0.000000	669.116211	49.580402
0.000000	667.900391	49.567703
0.000000	666.684570	61.943752
0.000000	665.468750	59.863613
0.000000	664.252930	53.657059
0.000000	663.036133	47.453682
0.000000	661.819336	51.566853
0.000000	660.602539	59.802189
0.000000	659.384766	72.156517
0.000000	658.166992	47.404953
0.000000	656.948242	51.513878
0.000000	655.730469	51.500629
0.000000	654.511719	59.725357
0.000000	653.291992	47.356194
0.000000	652.073242	57.636173
0.000000	650.853516	53.505516
0.000000	649.633789	45.262230
0.000000	648.413086	47.307404
0.000000	647.192383	51.407825
0.000000	645.971680	57.561909
0.000000	644.750000	51.381294
0.000000	643.528320	53.422745
0.000000	642.306641	59.571510
0.000000	641.084961	53.395134
0.000000	639.862305	57.487583
0.000000	638.639648	59.525307
0.000000	637.416016	41.041313
0.000000	636.192383	51.288357
0.000000	634.968750	61.530083
0.000000	633.745117	61.514141
0.000000	632.520508	59.448250
0.000000	631.295898	63.531647
0.000000	630.070313	57.368534
0.000000	628.844727	53.256954
0.000000	627.619141	53.243122
0.000000	626.393555	55.276569
0.000000	625.166992	55.262203
0.000000	623.940430	53.201614
0.000000	622.712891	61.370510
0.000000	621.486328	55.219082
0.000000	620.258789	49.070850
0.000000	619.030273	47.013981
0.000000	617.802734	57.219498
0.000000	616.573242	51.075516
0.000000	615.344727	51.062195
0.000000	614.115234	49.006916
20.000000	1722.566406	30.844776
20.000000	1721.590820	25.703979
20.000000	1720.613281	25.698774
20.000000	1719.636719	33.401642
20.000000	1718.659180	43.670219
20.000000	1717.682617	35.956421
20.000000	1716.705078	35.949131
20.000000	1715.727539	30.807293
20.000000	1714.749023	23.100782
20.000000	1713.771484	33.361027
20.000000	1712.792969	38.485680
20.000000	1711.814453	33.347485
20.000000	1710.835938	38.470055
20.000000	1709.856445	43.590538
20.000000	1708.877930	41.018051
20.000000	1707.898438	43.572823
20.000000	1706.918945	35.876205
20.000000	1705.939453	38.430973
20.000000	1704.958984	38.423157
20.000000	1703.979492	38.415337
20.000000	1702.999023	38.407520
20.000000	1702.018555	25.599800
20.000000	1701.038086	28.154045
20.000000	1700.056641	30.707247
20.000000	1699.076172	30.700989
20.000000	1698.094727	33.252625
20.000000	1697.113281	33.245846
20.000000	1696.131836	35.795918
20.000000	1695.149414	35.788616
20.000000	1694.167969	30.669697
20.000000	1693.185547	38.329296
20.000000	1692.203125	30.657175
20.000000	1691.219727	30.650915
20.000000	1690.237305	38.305817
20.000000	1689.253906	30.638391
20.000000	1688.270508	40.842838
20.000000	1687.287109	45.938801
20.000000	1686.303711	35.722870
20.000000	1685.320313	35.715565
20.000000	1684.335938	30.607077
20.000000	1683.351563	33.150879
20.000000	1682.367188	40.792728
20.000000	1681.382813	45.882423
20.000000	1680.397461	45.873024
20.000000	1679.412109	38.219688
20.000000	1678.426758	33.116940
20.000000	1677.441406	33.110153
20.000000	1676.456055	43.289013
20.000000	1675.469727	45.826023
20.000000	1674.483398	38.180519
20.000000	1673.497070	33.082993
20.000000	1672.510742	48.342140
20.000000	1671.524414	43.244610
20.000000	1670.537109	35.605896
20.000000	1669.549805	30.513069
20.000000	1668.562500	35.591267
20.000000	1667.575195	40.667370
20.000000	1666.587891	43.200199
20.000000	1665.599609	40.650646
20.000000	1664.611328	63.503571
20.000000	1663.623047	48.252785
20.000000	1662.634766	38.086464
20.000000	1661.646484	40.617195
20.000000	1660.657227	40.608833
20.000000	1659.667969	38.062939
20.000000	1658.678711	45.666115
20.000000	1657.689453	38.047253
20.000000	1656.699219	55.791138
20.000000	1655.708984	38.031567
20.000000	1654.718750	35.488808
20.000000	1653.728516	50.687840
20.000000	1652.738281	38.008038
20.000000	1651.747070	40.533539
20.000000	1650.756836	40.525169
20.000000	1649.765625	37.984501
20.000000	1648.773438	35.444878
20.000000	1647.782227	40.500061
20.000000	1646.790039	37.960960
20.000000	1645.798828	58.194775
20.000000	1644.806641	40.474953
20.000000	1643.813477	30.349936
20.000000	1642.821289	45.515488
20.000000	1641.828125	35.393608
20.000000	1640.834961	32.858692
20.000000	1639.841797	45.487232
20.000000	1638.848633	37.898178
20.000000	1637.854492	45.468391
20.000000	1636.861328	47.984470
20.000000	1635.867188	32.824677
20.000000	1634.873047	50.489037
20.000000	1633.877930	45.430710
20.000000	1632.883789	50.468102
20.000000	1631.888672	58.026276
20.000000	1630.893555	45.402447
20.000000	1629.898438	50.436695
20.000000	1628.902344	60.511467
20.000000	1627.907227	57.978115
20.000000	1626.911133	65.526871
20.000000	1625.915039	45.355331
20.000000	1624.918945	55.422775
20.000000	1623.921875	42.817791
20.000000	1622.924805	47.845230
20.000000	1621.928711	37.764694
20.000000	1620.930664	65.445190
20.000000	1619.933594	50.331982
20.000000	1618.936523	55.353661
20.000000	1617.938477	57.857689
20.000000	1616.940430	60.360672
20.000000	1615.942383	42.746574
20.000000	1614.943359	55.307575
20.000000	1613.945313	42.728767
20.000000	1612.946289	60.310398
20.000000	1611.947266	52.760597
20.000000	1610.948242	47.725826
20.000000	1609.948242	45.204514
20.000000	1608.949219	42.684246
20.000000	1607.949219	35.144398
20.000000	1606.949219	45.176228
20.000000	1605.948242	35.129734
20.000000	1604.948242	35.122398
20.000000	1603.947266	35.115063
20.000000	1602.946289	32.600037
20.000000	1601.945313	35.100395
20.000000	1600.944336	35.093060
20.000000	1599.942383	42.604095
20.000000	1598.940430	35.078392
20.000000	1597.938477	42.586285
20.000000	1596.936523	40.072826
20.000000	1595.934570	37.560413
20.000000	1594.931641	60.084087
20.000000	1593.928711	47.556614
20.000000	1592.925781	70.068756
20.000000	1591.922852	42.532841
20.000000	1590.918945	42.523930
20.000000	1589.915039	27.509720
20.000000	1588.911133	60.008633
20.000000	1587.907227	39.997372
20.000000	1586.903320	44.987610
20.000000	1585.898438	49.975754
20.000000	1584.894531	62.456589
20.000000	1583.889648	49.954792
20.000000	1582.883789	49.944309
20.000000	1581.878906	49.933826
20.000000	1580.873047	49.923347
20.000000	1579.867188	47.417221
20.000000	1578.861328	49.902382
20.000000	1577.855469	62.364876
20.000000	1576.848633	37.411064
20.000000	1575.842773	42.390297
20.000000	1574.835938	34.902317
20.000000	1573.828125	49.849972
20.000000	1572.821289	29.903694
20.000000	1571.813477	44.846107
20.000000	1570.805664	37.363895
20.000000	1569.797852	39.846436
20.000000	1568.790039	44.817802
20.000000	1567.782227	37.340309
20.000000	1566.773438	44.798935
20.000000	1565.764648	44.789501
20.000000	1564.755859	42.292286
20.000000	1563.747070	39.796116
20.000000	1562.737305	52.221394
20.000000	1561.727539	49.724178
20.000000	1560.717773	39.770958
20.000000	1559.708008	42.247730
20.000000	1558.697266	52.177364
20.000000	1557.687500	57.134583
20.000000	1556.676758	44.704586
20.000000	1555.666016	39.729023
20.000000	1554.654297	39.720638
20.000000	1553.643555	47.158298
20.000000	1552.631836	54.592812
20.000000	1551.620117	42.176445
20.000000	1550.608398	42.167534
20.000000	1549.596680	39.678703
20.000000	1548.583984	49.587894
20.000000	1547.571289	34.704189
20.000000	1546.558594	47.088581
20.000000	1545.545898	54.512089
20.000000	1544.532227	49.545963
20.000000	1543.518555	47.058704
20.000000	1542.504883	42.096245
20.000000	1541.491211	54.465961
20.000000	1540.477539	51.979229
20.000000	1539.462891	61.866932
20.000000	1538.448242	37.112297
20.000000	1537.433594	42.051693
20.000000	1536.418945	54.408306
20.000000	1535.404297	54.396774
20.000000	1534.388672	37.080849
20.000000	1533.373047	44.487583
20.000000	1532.357422	46.949154
20.000000	1531.340820	54.350647
20.000000	1530.325195	51.869160
20.000000	1529.308594	37.041538
20.000000	1528.291992	49.378231
20.000000	1527.275391	44.430977
20.000000	1526.257813	51.825130
20.000000	1525.240234	41.944767
20.000000	1524.223633	44.402672
20.000000	1523.205078	41.926949
20.000000	1522.187500	54.246872
20.000000	1521.168945	49.304855
20.000000	1520.151367	41.900219
20.000000	1519.132813	39.427113
20.000000	1518.113281	39.418728
20.000000	1517.094727	49.262928
20.000000	1516.075195	39.401958
20.000000	1515.055664	32.007278
20.000000	1514.036133	36.923615
20.000000	1513.016602	41.837852
20.000000	1511.996094	31.986841
20.000000	1510.975586	41.820038
20.000000	1509.955078	29.513737
20.000000	1508.934570	34.425358
20.000000	1507.914063	31.959591
20.000000	1506.892578	63.905560
20.000000	1505.871094	51.605022
20.000000	1504.849609	34.396011
20.000000	1503.827148	29.476009
20.000000	1502.805664	29.469721
20.000000	1501.783203	39.284576
20.000000	1500.760742	44.185719
20.000000	1499.738281	39.267811
20.000000	1498.714844	17.176001
20.000000	1497.691406	41.704235
20.000000	1496.668945	39.242661
20.000000	1495.644531	51.494991
20.000000	1494.621094	36.774277
20.000000	1493.596680	44.119705
20.000000	1492.573242	31.857420
20.000000	1491.547852	44.100845
20.000000	1490.523438	44.091415
20.000000	1489.499023	51.428982
20.000000	1488.473633	53.866455
20.000000	1487.448242	41.615173
20.000000	1486.422852	39.158840
20.000000	1485.396484	36.703556
20.000000	1484.371094	26.910179
20.000000	1483.344727	39.133698
20.000000	1482.318359	44.015984
20.000000	1481.291992	36.672131
20.000000	1480.264648	48.885696
20.000000	1479.237305	39.100178
20.000000	1478.209961	36.648560
20.000000	1477.182617	46.411560
20.000000	1476.155273	53.728176
20.000000	1475.126953	53.716656
20.000000	1474.098633	43.940563
20.000000	1473.070313	34.168663
20.000000	1472.041992	36.601425
20.000000	1471.012695	39.033142
20.000000	1469.983398	41.463814
20.000000	1468.954102	36.577862
20.000000	1467.924805	46.322010
20.000000	1466.895508	43.874584
20.000000	1465.865234	38.991253
20.000000	1464.834961	36.546448
20.000000	1463.804688	41.410404
20.000000	1462.773438	38.966122
20.000000	1461.743164	36.522884
20.000000	1460.711914	51.121048
20.000000	1459.680664	41.374805
20.000000	1458.649414	36.499329
20.000000	1457.617188	31.625946
20.000000	1456.584961	41.348106
20.000000	1455.552734	41.339207
20.000000	1454.520508	48.623894
20.000000	1453.488281	38.890739
20.000000	1452.455078	51.033104
20.000000	1451.421875	36.444366
20.000000	1450.388672	43.723816
20.000000	1449.355469	46.142975
20.000000	1448.321289	53.417194
20.000000	1447.288086	48.550617
20.000000	1446.253906	43.686138
20.000000	1445.218750	36.397263
20.000000	1444.184570	46.093258
20.000000	1443.149414	41.232441
20.000000	1442.114258	50.923203
20.000000	1441.079102	48.487823
20.000000	1440.043945	46.053490
20.000000	1439.007813	48.466892
20.000000	1437.971680	48.456429
20.000000	1436.935547	33.912178
20.000000	1435.899414	38.748402
20.000000	1434.862305	36.318779
20.000000	1433.826172	41.152390
20.000000	1432.789063	41.143497
20.000000	1431.750977	38.714920
20.000000	1430.713867	45.964031
20.000000	1429.675781	36.279545
20.000000	1428.637695	50.780380
20.000000	1427.599609	31.428675
20.000000	1426.561523	36.256008
20.000000	1425.522461	50.747429
20.000000	1424.483398	33.824299
20.000000	1423.444336	53.140965
20.000000	1422.405273	38.639606
20.000000	1421.365234	36.216785
20.000000	1420.326172	38.622871
20.000000	1419.286133	50.681538
20.000000	1418.245117	43.431908
20.000000	1417.205078	38.597775
20.000000	1416.164063	43.413086
20.000000	1415.123047	40.992359
20.000000	1414.082031	16.875547
20.000000	1413.041016	38.564312
20.000000	1411.999023	50.604683
20.000000	1410.957031	50.593704
20.000000	1409.915039	38.539219
20.000000	1408.873047	43.347214
20.000000	1407.831055	31.299526
20.000000	1406.788086	40.921265
20.000000	1405.745117	33.692547
20.000000	1404.702148	40.903492
20.000000	1403.658203	50.516869
20.000000	1402.614258	60.126064
20.000000	1401.571289	48.090401
20.000000	1400.526367	40.867958
20.000000	1399.482422	55.279922
20.000000	1398.437500	48.059048
20.000000	1397.393555	48.048595
20.000000	1396.347656	52.841961
20.000000	1395.302734	57.633236
20.000000	1394.257813	55.219837
20.000000	1393.211914	45.606461
20.000000	1392.166016	57.595623
20.000000	1391.120117	47.985905
20.000000	1390.073242	50.374229
20.000000	1389.026367	55.159760
20.000000	1387.979492	47.954563
20.000000	1386.932617	47.944115
20.000000	1385.885742	50.330353
20.000000	1384.837891	52.715546
20.000000	1383.790039	43.121502
20.000000	1382.742188	35.926750
20.000000	1381.694336	38.313511
20.000000	1380.645508	59.851807
20.000000	1379.596680	52.658100
20.000000	1378.547852	50.253586
20.000000	1377.499023	52.635128
20.000000	1376.450195	40.663723
20.000000	1375.400391	47.829231
20.000000	1374.350586	47.818790
20.000000	1373.300781	52.589184
20.000000	1372.250000	59.747383
20.000000	1371.199219	50.176842
20.000000	1370.148438	38.221622
20.000000	1369.097656	59.708233
20.000000	1368.046875	57.307377
20.000000	1366.995117	47.745708
20.000000	1365.943359	52.508797
20.000000	1364.891602	40.566109
20.000000	1363.839844	45.328674
20.000000	1362.787109	42.933563
20.000000	1361.735352	35.770142
20.000000	1360.682617	52.451393
20.000000	1359.628906	45.289017
20.000000	1358.576172	47.662216
20.000000	1357.522461	50.034370
20.000000	1356.468750	30.966875
20.000000	1355.415039	54.775547
20.000000	1354.360352	42.858429
20.000000	1353.306641	35.707535
20.000000	1352.251953	49.979591
20.000000	1351.196289	40.450802
20.000000	1350.141602	38.062996
20.000000	1349.085938	35.676235
20.000000	1348.030273	45.179989
20.000000	1346.974609	38.037964
20.000000	1345.918945	45.160172
20.000000	1344.862305	40.397606
20.000000	1343.806641	52.267780
20.000000	1342.749023	49.881023
20.000000	1341.692383	42.745777
20.000000	1340.635742	33.239414
20.000000	1339.578125	47.474449
20.000000	1338.520508	45.090820
20.000000	1337.462891	37.962875
20.000000	1336.404297	64.048279
20.000000	1335.345703	54.547657
20.000000	1334.287109	49.793434
20.000000	1333.228516	52.153084
20.000000	1332.169922	40.291248
20.000000	1331.110352	42.651939
20.000000	1330.050781	47.380619
20.000000	1328.991211	37.896156
20.000000	1327.930664	44.991787
20.000000	1326.871094	49.716820
20.000000	1325.810547	54.439770
20.000000	1324.750000	52.061359
20.000000	1323.688477	49.683990
20.000000	1322.627930	33.115368
20.000000	1321.566406	37.837795
20.000000	1320.504883	37.829460
20.000000	1319.443359	49.640224
20.000000	1318.380859	44.902687
20.000000	1317.318359	49.618347
20.000000	1316.255859	37.796120
20.000000	1315.193359	30.702576
20.000000	1314.129883	47.224316
20.000000	1313.067383	47.213898
20.000000	1312.003906	37.762787
20.000000	1310.939453	42.473759
20.000000	1309.875977	37.746120
20.000000	1308.811523	49.530846
20.000000	1307.747070	49.519913
20.000000	1306.682617	47.151405
20.000000	1305.617188	42.426891
20.000000	1304.552734	25.921818
20.000000	1303.487305	44.764156
20.000000	1302.421875	32.976826
20.000000	1301.355469	40.034439
20.000000	1300.290039	32.962250
20.000000	1299.223633	40.016739
20.000000	1298.157227	49.421513
20.000000	1297.089844	42.351929
20.000000	1296.023438	32.933102
20.000000	1294.956055	49.388721
20.000000	1293.888672	28.215881
20.000000	1292.820313	51.717667
20.000000	1291.752930	49.355934
20.000000	1290.684570	32.896671
20.000000	1289.616211	28.190903
20.000000	1288.546875	25.835936
20.000000	1287.478516	44.615822
20.000000	1286.409180	63.387383
20.000000	1285.339844	35.207409
20.000000	1284.270508	30.506325
20.000000	1283.200195	42.230160
20.000000	1282.129883	32.838398
20.000000	1281.059570	30.486036
20.000000	1279.989258	32.823833
20.000000	1278.918945	51.568867
20.000000	1277.847656	39.839825
20.000000	1276.776367	49.202980
20.000000	1275.705078	37.479664
20.000000	1274.632813	37.471344
20.000000	1273.561523	49.170216
20.000000	1272.489258	42.136539
20.000000	1271.416016	42.127178
20.000000	1270.343750	37.438061
20.000000	1269.270508	46.787178
20.000000	1268.197266	42.099102
20.000000	1267.124023	44.428062
20.000000	1266.050781	39.742584
20.000000	1264.976563	35.059189
20.000000	1263.902344	44.398430
20.000000	1262.828125	46.724792
20.000000	1261.753906	44.378674
20.000000	1260.678711	44.368801
20.000000	1259.603516	32.685524
20.000000	1258.528320	44.349049
20.000000	1257.452148	25.670048
20.000000	1256.376953	30.330572
20.000000	1255.300781	51.317230
20.000000	1254.224609	44.309551
20.000000	1253.147461	44.299679
20.000000	1252.071289	37.296677
20.000000	1250.994141	32.627319
20.000000	1249.916992	34.950047
20.000000	1248.839844	53.578121
20.000000	1247.761719	48.908245
20.000000	1246.683594	48.897335
20.000000	1245.605469	58.198124
20.000000	1244.527344	44.220703
20.000000	1243.448242	46.537720
20.000000	1242.369141	44.200966
20.000000	1241.290039	39.539402
20.000000	1240.210938	34.879917
20.000000	1239.130859	48.820976
20.000000	1238.050781	39.512913
20.000000	1236.970703	44.151623
20.000000	1235.890625	32.525505
20.000000	1234.810547	27.872772
20.000000	1233.729492	48.766445
20.000000	1232.648438	32.503696
20.000000	1231.566406	39.459946
20.000000	1230.485352	41.771770
20.000000	1229.403320	39.442291
20.000000	1228.321289	39.433464
20.000000	1227.239258	51.020123
20.000000	1226.156250	41.734390
20.000000	1225.073242	30.134756
20.000000	1223.990234	60.256016
20.000000	1222.907227	39.389339
20.000000	1221.823242	39.380516
20.000000	1220.740234	44.003654
20.000000	1219.656250	37.047405
20.000000	1218.571289	39.354042
20.000000	1217.487305	46.288494
20.000000	1216.402344	48.592022
20.000000	1215.317383	41.640965
20.000000	1214.232422	34.693020
20.000000	1213.146484	43.934631
20.000000	1212.060547	36.989281
20.000000	1210.974609	43.914913
20.000000	1209.888672	50.837429
20.000000	1208.802734	27.723282
20.000000	1207.715820	46.195091
20.000000	1206.628906	39.257008
20.000000	1205.541992	34.630756
20.000000	1204.454102	39.239368
20.000000	1203.366211	32.307510
20.000000	1202.278320	50.757534
20.000000	1201.190430	48.439480
20.000000	1200.101563	36.897972
20.000000	1199.013672	53.028904
20.000000	1197.924805	46.101719
20.000000	1196.834961	48.395912
20.000000	1195.746094	36.864777
20.000000	1194.656250	66.802368
20.000000	1193.566406	43.757217
20.000000	1192.476563	41.444870
20.000000	1191.385742	50.643433
20.000000	1190.294922	57.536392
20.000000	1189.204102	57.523426
20.000000	1188.113281	57.510464
20.000000	1187.021484	48.297901
20.000000	1185.930664	52.885777
20.000000	1184.838867	52.873852
20.000000	1183.746094	55.160271
20.000000	1182.654297	36.765221
20.000000	1181.561523	50.540771
20.000000	1180.468750	52.826157
20.000000	1179.375977	45.925419
20.000000	1178.282227	43.619301
20.000000	1177.188477	59.676090
20.000000	1176.094727	43.599602
20.000000	1175.000977	43.589752
20.000000	1173.906250	52.754623
20.000000	1172.811523	45.863220
20.000000	1171.716797	64.193993
20.000000	1170.622070	45.842487
20.000000	1169.526367	68.748184
20.000000	1168.431641	59.568287
20.000000	1167.334961	54.973675
20.000000	1166.239258	48.091080
20.000000	1165.143555	36.632534
20.000000	1164.046875	43.491287
20.000000	1162.950195	50.346931
20.000000	1161.852539	41.183620
20.000000	1160.755859	41.174294
20.000000	1159.658203	38.878025
20.000000	1158.560547	48.014912
20.000000	1157.461914	48.004032
20.000000	1156.364258	47.993153
20.000000	1155.265625	31.988182
20.000000	1154.166992	31.980930
20.000000	1153.067383	47.960518
20.000000	1151.967773	50.232956
20.000000	1150.869141	52.504356
20.000000	1149.768555	59.339283
20.000000	1148.668945	54.762291
20.000000	1147.568359	47.906128
20.000000	1146.467773	41.053070
20.000000	1145.367188	27.362499
20.000000	1144.266602	34.195354
20.000000	1143.165039	45.583447
20.000000	1142.063477	38.737125
20.000000	1140.961914	36.450184
20.000000	1139.859375	40.997135
20.000000	1138.757813	47.819118
20.000000	1137.655273	36.425327
20.000000	1136.551758	43.245235
20.000000	1135.449219	54.613136
20.000000	1134.345703	38.675499
20.000000	1133.242188	36.392185
20.000000	1132.138672	38.657894
20.000000	1131.034180	50.016472
20.000000	1129.929688	47.732124
20.000000	1128.825195	49.993690
20.000000	1127.720703	49.982300
20.000000	1126.616211	38.613884
20.000000	1125.510742	47.688633
20.000000	1124.405273	20.433325
20.000000	1123.298828	31.777925
20.000000	1122.193359	40.848015
20.000000	1121.086914	45.376328
20.000000	1119.980469	52.170872
20.000000	1118.873047	38.552277
20.000000	1117.766602	47.612530
20.000000	1116.659180	47.601662
20.000000	1115.551758	36.259651
20.000000	1114.443359	45.314209
20.000000	1113.335938	31.712700
20.000000	1112.227539	36.234802
20.000000	1111.118164	31.698206
20.000000	1110.009766	31.690960
20.000000	1108.900391	33.946835
20.000000	1107.791016	38.464283
20.000000	1106.681641	40.717571
20.000000	1105.572266	45.231392
20.000000	1104.461914	24.871572
20.000000	1103.351563	40.689621
20.000000	1102.241211	49.720375
20.000000	1101.129883	33.892490
20.000000	1100.018555	47.438622
20.000000	1098.907227	27.101574
20.000000	1097.795898	33.869205
20.000000	1096.683594	33.861443
20.000000	1095.572266	33.853680
20.000000	1094.458984	51.897072
20.000000	1093.346680	42.861660
20.000000	1092.234375	38.341110
20.000000	1091.121094	49.606525
20.000000	1090.006836	29.306219
20.000000	1088.893555	45.076141
20.000000	1087.779297	45.065792
20.000000	1086.666016	36.044353
20.000000	1085.550781	31.531567
20.000000	1084.436523	31.524323
20.000000	1083.321289	42.773178
20.000000	1082.206055	40.512642
20.000000	1081.090820	45.003700
20.000000	1079.974609	40.494019
20.000000	1078.859375	31.488102
20.000000	1077.743164	38.226757
20.000000	1076.625977	31.473616
20.000000	1075.509766	35.961567
20.000000	1074.392578	44.941612
20.000000	1073.275391	40.438137
20.000000	1072.158203	35.936733
20.000000	1071.040039	35.928455
20.000000	1069.921875	40.410198
20.000000	1068.803711	38.156391
20.000000	1067.685547	35.903622
20.000000	1066.566406	47.112637
20.000000	1065.447266	38.130005
20.000000	1064.328125	33.636364
20.000000	1063.208008	35.870510
20.000000	1062.088867	47.069180
20.000000	1060.968750	29.131338
20.000000	1059.847656	26.884258
20.000000	1058.727539	44.796749
20.000000	1057.606445	35.829121
20.000000	1056.485352	33.582043
20.000000	1055.364258	40.289139
20.000000	1054.242188	46.993130
20.000000	1053.120117	40.270512
20.000000	1051.998047	29.077534
20.000000	1050.875977	35.779457
20.000000	1049.752930	38.006878
20.000000	1048.629883	35.762901
20.000000	1047.506836	42.458614
20.000000	1046.383789	37.980492
20.000000	1045.259766	37.971699
20.000000	1044.135742	42.429127
20.000000	1043.011719	51.349678
20.000000	1041.886719	40.177391
20.000000	1040.762695	37.936520
20.000000	1039.637695	49.082939
20.000000	1038.511719	49.071556
20.000000	1037.386719	51.290184
20.000000	1036.260742	37.901340
20.000000	1035.134766	42.350491
20.000000	1034.007813	49.026031
20.000000	1032.881836	26.735262
20.000000	1031.754883	37.866161
20.000000	1030.627930	35.630463
20.000000	1029.500000	44.527729
20.000000	1028.372070	28.936298
20.000000	1027.245117	42.281685
20.000000	1026.116211	40.047020
20.000000	1024.988281	33.364754
20.000000	1023.859375	35.580795
20.000000	1022.730469	51.135490
20.000000	1021.601563	46.678062
20.000000	1020.471680	44.444950
20.000000	1019.341797	44.434601
20.000000	1018.211914	44.424255
20.000000	1017.082031	31.089735
20.000000	1015.951172	55.504448
20.000000	1014.820313	37.734230
20.000000	1013.689453	37.725433
20.000000	1012.557617	31.060760
20.000000	1011.426758	48.798382
20.000000	1010.293945	33.263863
20.000000	1009.162109	46.558540
20.000000	1008.030273	37.681450
20.000000	1006.897461	35.456615
20.000000	1005.764648	31.017296
20.000000	1004.630859	50.945084
20.000000	1003.498047	39.860752
20.000000	1002.364258	42.065407
20.000000	1001.230469	37.628670
20.000000	1000.095703	39.832806
20.000000	998.960938	53.097988
20.000000	997.826172	46.449875
20.000000	996.691406	35.382099
20.000000	995.556641	42.006409
20.000000	994.420898	44.206924
20.000000	993.285156	50.826057
20.000000	992.148438	39.767601
20.000000	991.012695	55.219837
20.000000	989.875977	35.332417
20.000000	988.739258	55.193962
20.000000	987.601563	48.559299
20.000000	986.463867	50.754635
20.000000	985.326172	52.948936
20.000000	984.188477	37.496696
20.000000	983.049805	48.513748
20.000000	981.912109	46.297710
20.000000	980.773438	28.653757
20.000000	979.633789	37.461498
20.000000	978.495117	28.640299
20.000000	977.355469	39.646481
20.000000	976.214844	46.243355
20.000000	975.075195	41.829388
20.000000	973.934570	30.814407
20.000000	972.793945	33.007671
20.000000	971.653320	41.799881
20.000000	970.511719	48.388470
20.000000	969.370117	39.581245
20.000000	968.228516	46.167248
20.000000	967.086914	39.562607
20.000000	965.944336	28.566261
20.000000	964.801758	48.331512
20.000000	963.659180	43.927383
20.000000	962.516602	48.308727
20.000000	961.373047	37.320667
20.000000	960.229492	35.117050
20.000000	959.084961	30.720167
20.000000	957.941406	32.906696
20.000000	956.796875	48.251762
20.000000	955.652344	41.662136
20.000000	954.506836	37.267841
20.000000	953.362305	52.600994
20.000000	952.216797	35.059040
20.000000	951.070313	48.194786
20.000000	949.924805	54.753853
20.000000	948.778320	39.413448
20.000000	947.631836	41.593243
20.000000	946.485352	41.583401
20.000000	945.337891	30.633146
20.000000	944.190430	32.813457
20.000000	943.042969	34.992733
20.000000	941.894531	37.170971
20.000000	940.747070	39.348171
20.000000	939.597656	39.338844
20.000000	938.449219	45.884438
20.000000	937.300781	34.951279
20.000000	936.151367	56.782356
20.000000	935.001953	52.402042
20.000000	933.851563	32.743504
20.000000	932.701172	45.830021
20.000000	931.550781	34.909817
20.000000	930.400391	50.170944
20.000000	929.250000	43.616539
20.000000	928.098633	41.425865
20.000000	926.947266	28.337273
20.000000	925.794922	41.406166
20.000000	924.642578	43.575069
20.000000	923.490234	41.386467
20.000000	922.337891	54.442913
20.000000	921.185547	52.252754
20.000000	920.032227	54.416988
20.000000	918.878906	34.818577
20.000000	917.724609	56.566704
20.000000	916.571289	50.027851
20.000000	915.416992	50.015923
20.000000	914.262695	52.178082
20.000000	913.107422	60.859905
20.000000	911.952148	34.768791
20.000000	910.796875	45.623146
20.000000	909.641602	39.096214
20.000000	908.485352	39.086880
20.000000	907.329102	36.906567
20.000000	906.172852	41.238659
20.000000	905.016602	52.078484
20.000000	903.859375	36.880108
20.000000	902.702148	28.195688
20.000000	901.544922	41.199226
20.000000	900.386719	39.021503
20.000000	899.228516	47.681534
20.000000	898.070313	43.336468
20.000000	896.911133	36.827175
20.000000	895.752930	49.813065
20.000000	894.593750	38.974796
20.000000	893.433594	38.965450
20.000000	892.274414	28.134966
20.000000	891.114258	25.964508
20.000000	889.954102	41.100609
20.000000	888.792969	43.253414
20.000000	887.632813	49.729485
20.000000	886.470703	51.879173
20.000000	885.309570	41.061146
20.000000	884.148438	38.890686
20.000000	882.986328	41.041412
20.000000	881.824219	38.871990
20.000000	880.661133	47.498783
20.000000	879.498047	45.328838
20.000000	878.334961	47.475925
20.000000	877.171875	49.621975
20.000000	876.007813	38.825237
20.000000	874.843750	28.033695
20.000000	873.679688	45.274288
20.000000	872.515625	43.107979
20.000000	871.350586	45.252464
20.000000	870.185547	49.550270
20.000000	869.020508	55.999836
20.000000	867.854492	43.066402
20.000000	866.688477	40.903206
20.000000	865.522461	45.197891
20.000000	864.356445	51.642258
20.000000	863.189453	53.781021
20.000000	862.022461	47.315861
20.000000	860.854492	47.304420
20.000000	859.687500	49.442661
20.000000	858.519531	42.983219
20.000000	857.351563	45.121460
20.000000	856.182617	51.554901
20.000000	855.013672	45.099613
20.000000	853.844727	55.824093
20.000000	852.675781	53.664009
20.000000	851.505859	42.920803
20.000000	850.335938	47.201435
20.000000	849.166016	40.754990
20.000000	847.995117	40.745106
20.000000	846.825195	45.023136
20.000000	845.653320	51.442520
20.000000	844.482422	53.572948
20.000000	843.310547	57.844730
20.000000	842.138672	38.553783
20.000000	840.966797	38.544415
20.000000	839.793945	49.239223
20.000000	838.622070	38.525673
20.000000	837.448242	49.215271
20.000000	836.275391	44.924747
20.000000	835.101563	64.162590
20.000000	833.927734	44.902874
20.000000	832.753906	57.718204
20.000000	831.579102	55.566948
20.000000	830.404297	51.280067
20.000000	829.229492	53.403709
20.000000	828.054688	44.848175
20.000000	826.878906	61.918083
20.000000	825.703125	44.826290
20.000000	824.526367	42.681282
20.000000	823.350586	61.872746
20.000000	822.173828	51.192520
20.000000	820.996094	57.577511
20.000000	819.819336	46.903542
20.000000	818.641602	44.760612
20.000000	817.463867	57.535282
20.000000	816.285156	57.521202
20.000000	815.107422	44.727760
20.000000	813.928711	42.587437
20.000000	812.749023	57.478958
20.000000	811.570313	46.823231
20.000000	810.390625	40.428333
20.000000	809.209961	53.182133
20.000000	808.030273	51.042324
20.000000	806.849609	51.029800
20.000000	805.668945	59.520157
20.000000	804.488281	53.129948
20.000000	803.306641	48.867550
20.000000	802.125000	53.103851
20.000000	800.943359	46.719902
20.000000	799.760742	59.447075
20.000000	798.578125	65.800217
20.000000	797.395508	63.661964
20.000000	796.211914	57.281670
20.000000	795.029297	57.267567
20.000000	793.844727	50.891968
20.000000	792.661133	61.479313
20.000000	791.476563	52.986347
20.000000	790.291992	52.973282
20.000000	789.107422	57.197037
20.000000	787.922852	50.829269
20.000000	786.737305	59.286179
20.000000	785.550781	63.505226
20.000000	784.365234	55.024273
20.000000	783.178711	50.779087
20.000000	781.992188	40.190178
20.000000	780.805664	29.606495
20.000000	779.618164	38.056080
20.000000	778.430664	54.956295
20.000000	777.243164	40.150429
20.000000	776.054688	54.929092
20.000000	774.866211	57.027626
20.000000	773.677734	40.120609
20.000000	772.489258	52.777195
20.000000	771.299805	56.985241
20.000000	770.110352	65.411270
20.000000	768.919922	42.190353
20.000000	767.730469	54.833847
20.000000	766.540039	46.386353
20.000000	765.348633	52.698673
20.000000	764.158203	52.685581
20.000000	762.966797	58.993187
20.000000	761.774414	46.340267
20.000000	760.583008	42.117039
20.000000	759.390625	56.843857
20.000000	758.198242	46.305691
20.000000	757.005859	52.607002
20.000000	755.812500	54.697655
20.000000	754.619141	60.993725
20.000000	753.424805	42.054153
20.000000	752.231445	50.452400
20.000000	751.037109	60.948112
20.000000	749.842773	44.123829
20.000000	748.647461	46.213428
20.000000	747.452148	46.201889
20.000000	746.256836	52.489033
20.000000	745.060547	69.268211
20.000000	743.865234	62.955360
20.000000	742.668945	60.841629
20.000000	741.471680	56.631485
20.000000	740.274414	54.520378
20.000000	739.077148	46.121078
20.000000	737.879883	50.301304
20.000000	736.681641	46.097977
20.000000	735.484375	50.276100
20.000000	734.285156	46.074871
20.000000	733.086914	52.344677
20.000000	731.887695	54.424809
20.000000	730.688477	50.225674
20.000000	729.488281	46.028641
20.000000	728.288086	71.117310
20.000000	727.087891	69.008278
20.000000	725.887695	64.809662
20.000000	724.686523	73.153801
20.000000	723.485352	64.777069
20.000000	722.284180	41.781139
20.000000	721.082031	56.390343
20.000000	719.879883	66.816170
20.000000	718.677734	41.749584
20.000000	717.474609	68.869453
20.000000	716.272461	58.419952
20.000000	715.068359	54.233418
20.000000	713.865234	58.390484
20.000000	712.661133	68.799980
20.000000	711.457031	58.361004
20.000000	710.251953	52.094875
20.000000	709.047852	43.748638
20.000000	707.842773	49.985806
20.000000	706.636719	56.219807
20.000000	705.431641	54.123898
20.000000	704.225586	58.272522
20.000000	703.018555	54.096497
20.000000	701.812500	52.002689
20.000000	700.605469	54.069092
20.000000	699.397461	41.581066
20.000000	698.190430	62.355782
20.000000	696.982422	56.105965
20.000000	695.774414	51.936783
20.000000	694.565430	62.308319
20.000000	693.356445	51.910412
20.000000	692.147461	39.441887
20.000000	690.938477	51.884029
20.000000	689.728516	51.870834
20.000000	688.518555	56.006252
20.000000	687.308594	55.991997
20.000000	686.097656	64.270744
20.000000	684.886719	60.108929
20.000000	683.674805	53.877033
20.000000	682.463867	45.576637
20.000000	681.251953	55.920704
20.000000	680.040039	51.765221
20.000000	678.827148	45.541767
20.000000	677.614258	53.808350
20.000000	676.401367	60.001675
20.000000	675.187500	51.712364
20.000000	673.973633	49.631180
20.000000	672.759766	47.551052
20.000000	671.545898	64.074150
20.000000	670.331055	51.659481
20.000000	669.116211	45.448704
20.000000	667.900391	41.306419
20.000000	666.684570	51.619793
20.000000	665.468750	47.478035
20.000000	664.252930	49.529594
20.000000	663.036133	49.516888
20.000000	661.819336	47.441505
20.000000	660.602539	63.926479
20.000000	659.384766	61.848442
20.000000	658.166992	63.893635
20.000000	656.948242	49.453323
20.000000	655.730469	53.560654
20.000000	654.511719	49.427883
20.000000	653.291992	53.533089
20.000000	652.073242	53.519302
20.000000	650.853516	55.563419
20.000000	649.633789	82.294960
20.000000	648.413086	55.534779
20.000000	647.192383	51.407825
20.000000	645.971680	41.115650
20.000000	644.750000	47.270790
20.000000	643.528320	55.477463
20.000000	642.306641	55.463131
20.000000	641.084961	55.448795
20.000000	639.862305	51.328197
20.000000	638.639648	59.525307
20.000000	637.416016	59.509903
20.000000	636.192383	55.391426
20.000000	634.968750	53.326073
20.000000	633.745117	38.958954
20.000000	632.520508	55.348373
20.000000	631.295898	57.383423
20.000000	630.070313	53.270782
20.000000	628.844727	55.305298
20.000000	627.619141	49.147499
20.000000	626.393555	59.371132
20.000000	625.166992	51.168705
20.000000	623.940430	53.201614
20.000000	622.712891	65.461876
20.000000	621.486328	65.444839
20.000000	620.258789	57.249325
20.000000	619.030273	61.322582
20.000000	617.802734	59.263050
20.000000	616.573242	46.989475
20.000000	615.344727	61.274632
20.000000	614.115234	69.426460
40.000000	1722.566406	41.126366
40.000000	1721.590820	20.563183
40.000000	1720.613281	33.408409
40.000000	1719.636719	15.416142
40.000000	1718.659180	30.826036
40.000000	1717.682617	23.114841
40.000000	1716.705078	38.516926
40.000000	1715.727539	41.076389
40.000000	1714.749023	28.234291
40.000000	1713.771484	43.625957
40.000000	1712.792969	33.354256
40.000000	1711.814453	43.608250
40.000000	1710.835938	30.776043
40.000000	1709.856445	30.769791
40.000000	1708.877930	41.018051
40.000000	1707.898438	33.320393
40.000000	1706.918945	30.751034
40.000000	1705.939453	23.058584
40.000000	1704.958984	46.107788
40.000000	1703.979492	28.171247
40.000000	1702.999023	30.726015
40.000000	1702.018555	17.919859
40.000000	1701.038086	38.391880
40.000000	1700.056641	25.589373
40.000000	1699.076172	48.609901
40.000000	1698.094727	43.484203
40.000000	1697.113281	35.803219
40.000000	1696.131836	46.023323
40.000000	1695.149414	35.788616
40.000000	1694.167969	28.113888
40.000000	1693.185547	38.329296
40.000000	1692.203125	45.985764
40.000000	1691.219727	40.867886
40.000000	1690.237305	38.305817
40.000000	1689.253906	33.191589
40.000000	1688.270508	30.632130
40.000000	1687.287109	30.625866
40.000000	1686.303711	33.171238
40.000000	1685.320313	43.368900
40.000000	1684.335938	38.258846
40.000000	1683.351563	35.700947
40.000000	1682.367188	35.693638
40.000000	1681.382813	38.235352
40.000000	1680.397461	50.970028
40.000000	1679.412109	40.767666
40.000000	1678.426758	53.496597
40.000000	1677.441406	28.016283
40.000000	1676.456055	38.196186
40.000000	1675.469727	43.280132
40.000000	1674.483398	48.361988
40.000000	1673.497070	48.352066
40.000000	1672.510742	38.164845
40.000000	1671.524414	40.700809
40.000000	1670.537109	58.495399
40.000000	1669.549805	43.226849
40.000000	1668.562500	50.844666
40.000000	1667.575195	40.667370
40.000000	1666.587891	33.035446
40.000000	1665.599609	53.353973
40.000000	1664.611328	40.642284
40.000000	1663.623047	38.094303
40.000000	1662.634766	40.625561
40.000000	1661.646484	40.617195
40.000000	1660.657227	35.532726
40.000000	1659.667969	40.600468
40.000000	1658.678711	30.444077
40.000000	1657.689453	43.120220
40.000000	1656.699219	48.183254
40.000000	1655.708984	43.102444
40.000000	1654.718750	43.093555
40.000000	1653.728516	38.015881
40.000000	1652.738281	43.075775
40.000000	1651.747070	48.133575
40.000000	1650.756836	30.393877
40.000000	1649.765625	50.646000
40.000000	1648.773438	58.230869
40.000000	1647.782227	40.500061
40.000000	1646.790039	53.145348
40.000000	1645.798828	40.483322
40.000000	1644.806641	50.593689
40.000000	1643.813477	37.937420
40.000000	1642.821289	53.101402
40.000000	1641.828125	48.034184
40.000000	1640.834961	50.551834
40.000000	1639.841797	48.014301
40.000000	1638.848633	42.951267
40.000000	1637.854492	40.416348
40.000000	1636.861328	50.509972
40.000000	1635.867188	53.024479
40.000000	1634.873047	42.915680
40.000000	1633.877930	27.763212
40.000000	1632.883789	42.897884
40.000000	1631.888672	50.457630
40.000000	1630.893555	52.969521
40.000000	1629.898438	47.914860
40.000000	1628.902344	45.383602
40.000000	1627.907227	45.374180
40.000000	1626.911133	57.966076
40.000000	1625.915039	52.914555
40.000000	1624.918945	50.384342
40.000000	1623.921875	62.967339
40.000000	1622.924805	57.917908
40.000000	1621.928711	50.352928
40.000000	1620.930664	60.410946
40.000000	1619.933594	60.398376
40.000000	1618.936523	62.901886
40.000000	1617.938477	50.311035
40.000000	1616.940430	32.695366
40.000000	1615.942383	42.746574
40.000000	1614.943359	42.737671
40.000000	1613.945313	52.782597
40.000000	1612.946289	45.232796
40.000000	1611.947266	40.198551
40.000000	1610.948242	35.166401
40.000000	1609.948242	45.204514
40.000000	1608.949219	42.684246
40.000000	1607.949219	35.144398
40.000000	1606.949219	47.686020
40.000000	1605.948242	37.639000
40.000000	1604.948242	45.157368
40.000000	1603.947266	42.639721
40.000000	1602.946289	42.630814
40.000000	1601.945313	30.086054
40.000000	1600.944336	40.106358
40.000000	1599.942383	47.616344
40.000000	1598.940430	60.134384
40.000000	1597.938477	47.596436
40.000000	1596.936523	45.081928
40.000000	1595.934570	47.576523
40.000000	1594.931641	52.573578
40.000000	1593.928711	42.550655
40.000000	1592.925781	62.561394
40.000000	1591.922852	45.034771
40.000000	1590.918945	60.033787
40.000000	1589.915039	45.015907
40.000000	1588.911133	52.507553
40.000000	1587.907227	44.997044
40.000000	1586.903320	54.984856
40.000000	1585.898438	54.973328
40.000000	1584.894531	72.449646
40.000000	1583.889648	62.443489
40.000000	1582.883789	54.938740
40.000000	1581.878906	59.920593
40.000000	1580.873047	59.908016
40.000000	1579.867188	54.904152
40.000000	1578.861328	44.912144
40.000000	1577.855469	34.924332
40.000000	1576.848633	44.893276
40.000000	1575.842773	42.390297
40.000000	1574.835938	47.367432
40.000000	1573.828125	39.879978
40.000000	1572.821289	42.363567
40.000000	1571.813477	34.880306
40.000000	1570.805664	42.345745
40.000000	1569.797852	34.865631
40.000000	1568.790039	47.307682
40.000000	1567.782227	47.297722
40.000000	1566.773438	57.243084
40.000000	1565.764648	44.789501
40.000000	1564.755859	59.706753
40.000000	1563.747070	34.821602
40.000000	1562.737305	54.708130
40.000000	1561.727539	44.751762
40.000000	1560.717773	42.256641
40.000000	1559.708008	39.762569
40.000000	1558.697266	44.723457
40.000000	1557.687500	42.229908
40.000000	1556.676758	52.155350
40.000000	1555.666016	39.729023
40.000000	1554.654297	44.685715
40.000000	1553.643555	42.194267
40.000000	1552.631836	44.666847
40.000000	1551.620117	54.581280
40.000000	1550.608398	52.089306
40.000000	1549.596680	49.598377
40.000000	1548.583984	49.587894
40.000000	1547.571289	44.619671
40.000000	1546.558594	39.653542
40.000000	1545.545898	47.078621
40.000000	1544.532227	52.023258
40.000000	1543.518555	37.151608
40.000000	1542.504883	42.096245
40.000000	1541.491211	39.611610
40.000000	1540.477539	51.979229
40.000000	1539.462891	47.018867
40.000000	1538.448242	49.483063
40.000000	1537.433594	44.525322
40.000000	1536.418945	49.462097
40.000000	1535.404297	44.506451
40.000000	1534.388672	46.969074
40.000000	1533.373047	42.016048
40.000000	1532.357422	34.594116
40.000000	1531.340820	24.704840
40.000000	1530.325195	54.339119
40.000000	1529.308594	32.102665
40.000000	1528.291992	46.909321
40.000000	1527.275391	54.304523
40.000000	1526.257813	59.228722
40.000000	1525.240234	32.075409
40.000000	1524.223633	49.336304
40.000000	1523.205078	44.393238
40.000000	1522.187500	32.054970
40.000000	1521.168945	49.304855
40.000000	1520.151367	59.153252
40.000000	1519.132813	39.427113
40.000000	1518.113281	44.346069
40.000000	1517.094727	44.336636
40.000000	1516.075195	41.864582
40.000000	1515.055664	54.166164
40.000000	1514.036133	41.846764
40.000000	1513.016602	34.454704
40.000000	1511.996094	39.368420
40.000000	1510.975586	41.820038
40.000000	1509.955078	41.811127
40.000000	1508.934570	31.966404
40.000000	1507.914063	39.334881
40.000000	1506.892578	39.326496
40.000000	1505.871094	56.519787
40.000000	1504.849609	46.680302
40.000000	1503.827148	41.757679
40.000000	1502.805664	36.837151
40.000000	1501.783203	31.918720
40.000000	1500.760742	39.276196
40.000000	1499.738281	36.813572
40.000000	1498.714844	36.805714
40.000000	1497.691406	41.704235
40.000000	1496.668945	36.789997
40.000000	1495.644531	51.494991
40.000000	1494.621094	39.225899
40.000000	1493.596680	29.413136
40.000000	1492.573242	36.758560
40.000000	1491.547852	46.550892
40.000000	1490.523438	44.091415
40.000000	1489.499023	31.836988
40.000000	1488.473633	36.727131
40.000000	1487.448242	34.271320
40.000000	1486.422852	31.816559
40.000000	1485.396484	44.044270
40.000000	1484.371094	41.588459
40.000000	1483.344727	29.350275
40.000000	1482.318359	39.125317
40.000000	1481.291992	56.230598
40.000000	1480.264648	48.885696
40.000000	1479.237305	46.431461
40.000000	1478.209961	41.535034
40.000000	1477.182617	41.526131
40.000000	1476.155273	43.959419
40.000000	1475.126953	34.183327
40.000000	1474.098633	46.381706
40.000000	1473.070313	48.812374
40.000000	1472.041992	39.041523
40.000000	1471.012695	48.791428
40.000000	1469.983398	36.585716
40.000000	1468.954102	53.647533
40.000000	1467.924805	53.636013
40.000000	1466.895508	53.624493
40.000000	1465.865234	46.302113
40.000000	1464.834961	31.673586
40.000000	1463.804688	43.846310
40.000000	1462.773438	41.401505
40.000000	1461.743164	41.392605
40.000000	1460.711914	46.252377
40.000000	1459.680664	41.374805
40.000000	1458.649414	31.632751
40.000000	1457.617188	38.924240
40.000000	1456.584961	46.212589
40.000000	1455.552734	41.339207
40.000000	1454.520508	29.174335
40.000000	1453.488281	51.044094
40.000000	1452.455078	48.602955
40.000000	1451.421875	36.444366
40.000000	1450.388672	38.865616
40.000000	1449.355469	48.571552
40.000000	1448.321289	48.561085
40.000000	1447.288086	43.695557
40.000000	1446.253906	38.832123
40.000000	1445.218750	29.117811
40.000000	1444.184570	33.963455
40.000000	1443.149414	36.381565
40.000000	1442.114258	46.073372
40.000000	1441.079102	31.517084
40.000000	1440.043945	33.934151
40.000000	1439.007813	41.196861
40.000000	1437.971680	43.610786
40.000000	1436.935547	36.334473
40.000000	1435.899414	33.904850
40.000000	1434.862305	50.846291
40.000000	1433.826172	38.731663
40.000000	1432.789063	43.563702
40.000000	1431.750977	45.973969
40.000000	1430.713867	43.544872
40.000000	1429.675781	36.279545
40.000000	1428.637695	55.616608
40.000000	1427.599609	41.099037
40.000000	1426.561523	48.341347
40.000000	1425.522461	41.081253
40.000000	1424.483398	50.736446
40.000000	1423.444336	45.894470
40.000000	1422.405273	41.054581
40.000000	1421.365234	33.802334
40.000000	1420.326172	45.864662
40.000000	1419.286133	36.201099
40.000000	1418.245117	43.431908
40.000000	1417.205078	45.834858
40.000000	1416.164063	57.884113
40.000000	1415.123047	43.403675
40.000000	1414.082031	45.805054
40.000000	1413.041016	45.795120
40.000000	1411.999023	45.785191
40.000000	1410.957031	53.002930
40.000000	1409.915039	48.174026
40.000000	1408.873047	43.347214
40.000000	1407.831055	50.560772
40.000000	1406.788086	40.921265
40.000000	1405.745117	45.725601
40.000000	1404.702148	55.340019
40.000000	1403.658203	48.111305
40.000000	1402.614258	50.505894
40.000000	1401.571289	57.708481
40.000000	1400.526367	45.675953
40.000000	1399.482422	48.069500
40.000000	1398.437500	52.864952
40.000000	1397.393555	50.451027
40.000000	1396.347656	60.047684
40.000000	1395.302734	69.640160
40.000000	1394.257813	45.616386
40.000000	1393.211914	50.407139
40.000000	1392.166016	45.596535
40.000000	1391.120117	43.187313
40.000000	1390.073242	47.975456
40.000000	1389.026367	26.380754
40.000000	1387.979492	38.363647
40.000000	1386.932617	55.135731
40.000000	1385.885742	57.520405
40.000000	1384.837891	45.527061
40.000000	1383.790039	45.517139
40.000000	1382.742188	59.877918
40.000000	1381.694336	50.286484
40.000000	1380.645508	59.851807
40.000000	1379.596680	59.838753
40.000000	1378.547852	55.039642
40.000000	1377.499023	59.812645
40.000000	1376.450195	55.015625
40.000000	1375.400391	55.003616
40.000000	1374.350586	45.427849
40.000000	1373.300781	47.808350
40.000000	1372.250000	43.018116
40.000000	1371.199219	50.176842
40.000000	1370.148438	52.554729
40.000000	1369.097656	47.766586
40.000000	1368.046875	52.531765
40.000000	1366.995117	54.907566
40.000000	1365.943359	59.669090
40.000000	1364.891602	62.042282
40.000000	1363.839844	40.557236
40.000000	1362.787109	62.015148
40.000000	1361.735352	45.308846
40.000000	1360.682617	45.298931
40.000000	1359.628906	47.672649
40.000000	1358.576172	54.811546
40.000000	1357.522461	54.799545
40.000000	1356.468750	52.405479
40.000000	1355.415039	40.486275
40.000000	1354.360352	33.334335
40.000000	1353.306641	47.610043
40.000000	1352.251953	57.119534
40.000000	1351.196289	47.589180
40.000000	1350.141602	47.578747
40.000000	1349.085938	61.838810
40.000000	1348.030273	49.935780
40.000000	1346.974609	40.415337
40.000000	1345.918945	42.783321
40.000000	1344.862305	59.408241
40.000000	1343.806641	40.388741
40.000000	1342.749023	47.505733
40.000000	1341.692383	40.371010
40.000000	1340.635742	35.613659
40.000000	1339.578125	49.848171
40.000000	1338.520508	47.464024
40.000000	1337.462891	30.844837
40.000000	1336.404297	49.815327
40.000000	1335.345703	42.689468
40.000000	1334.287109	52.164551
40.000000	1333.228516	45.041298
40.000000	1332.169922	35.551102
40.000000	1331.110352	54.499702
40.000000	1330.050781	42.642559
40.000000	1328.991211	37.896156
40.000000	1327.930664	47.359776
40.000000	1326.871094	44.981884
40.000000	1325.810547	42.605038
40.000000	1324.750000	42.595657
40.000000	1323.688477	40.220375
40.000000	1322.627930	44.942284
40.000000	1321.566406	59.121555
40.000000	1320.504883	47.286827
40.000000	1319.443359	37.821125
40.000000	1318.380859	49.629288
40.000000	1317.318359	44.892788
40.000000	1316.255859	30.709347
40.000000	1315.193359	37.787785
40.000000	1314.129883	49.585529
40.000000	1313.067383	30.689034
40.000000	1312.003906	37.762787
40.000000	1310.939453	51.912373
40.000000	1309.875977	54.260048
40.000000	1308.811523	28.303341
40.000000	1307.747070	37.729458
40.000000	1306.682617	42.436264
40.000000	1305.617188	49.498043
40.000000	1304.552734	58.913223
40.000000	1303.487305	35.340126
40.000000	1302.421875	49.465240
40.000000	1301.355469	40.034439
40.000000	1300.290039	44.734482
40.000000	1299.223633	49.432446
40.000000	1298.157227	35.301079
40.000000	1297.089844	32.940388
40.000000	1296.023438	47.047287
40.000000	1294.956055	51.740566
40.000000	1293.888672	54.080437
40.000000	1292.820313	35.262043
40.000000	1291.752930	39.954803
40.000000	1290.684570	56.394291
40.000000	1289.616211	42.286354
40.000000	1288.546875	42.276985
40.000000	1287.478516	42.267620
40.000000	1286.409180	56.344341
40.000000	1285.339844	39.901730
40.000000	1284.270508	39.892883
40.000000	1283.200195	30.499561
40.000000	1282.129883	46.911999
40.000000	1281.059570	35.176193
40.000000	1279.989258	53.924870
40.000000	1278.918945	42.192707
40.000000	1277.847656	42.183346
40.000000	1276.776367	42.173985
40.000000	1275.705078	44.507099
40.000000	1274.632813	39.813301
40.000000	1273.561523	37.463020
40.000000	1272.489258	37.454700
40.000000	1271.416016	35.105984
40.000000	1270.343750	49.137455
40.000000	1269.270508	42.108459
40.000000	1268.197266	42.099102
40.000000	1267.124023	46.766380
40.000000	1266.050781	35.066986
40.000000	1264.976563	44.408306
40.000000	1263.902344	35.051392
40.000000	1262.828125	42.052311
40.000000	1261.753906	46.714394
40.000000	1260.678711	49.039200
40.000000	1259.603516	49.028282
40.000000	1258.528320	39.680729
40.000000	1257.452148	49.006454
40.000000	1256.376953	44.329300
40.000000	1255.300781	41.986824
40.000000	1254.224609	44.309551
40.000000	1253.147461	44.299679
40.000000	1252.071289	34.965637
40.000000	1250.994141	55.932545
40.000000	1249.916992	41.940056
40.000000	1248.839844	32.612770
40.000000	1247.761719	37.263424
40.000000	1246.683594	41.912003
40.000000	1245.605469	46.558498
40.000000	1244.527344	53.530327
40.000000	1243.448242	53.518379
40.000000	1242.369141	39.548233
40.000000	1241.290039	41.865250
40.000000	1240.210938	41.855900
40.000000	1239.130859	39.521744
40.000000	1238.050781	55.782936
40.000000	1236.970703	58.094242
40.000000	1235.890625	32.525505
40.000000	1234.810547	39.486427
40.000000	1233.729492	46.444237
40.000000	1232.648438	44.112156
40.000000	1231.566406	41.781116
40.000000	1230.485352	48.733734
40.000000	1229.403320	48.722832
40.000000	1228.321289	57.990391
40.000000	1227.239258	39.424641
40.000000	1226.156250	37.097237
40.000000	1225.073242	37.088932
40.000000	1223.990234	41.715702
40.000000	1222.907227	48.657417
40.000000	1221.823242	34.747513
40.000000	1220.740234	41.687672
40.000000	1219.656250	55.571106
40.000000	1218.571289	48.613819
40.000000	1217.487305	34.716370
40.000000	1216.402344	50.905926
40.000000	1215.317383	34.700802
40.000000	1214.232422	32.380150
40.000000	1213.146484	34.685234
40.000000	1212.060547	50.860260
40.000000	1210.974609	30.047045
40.000000	1209.888672	34.661884
40.000000	1208.802734	34.654102
40.000000	1207.715820	39.265827
40.000000	1206.628906	41.566242
40.000000	1205.541992	43.865623
40.000000	1204.454102	43.855766
40.000000	1203.366211	43.845909
40.000000	1202.278320	34.607410
40.000000	1201.190430	36.906273
40.000000	1200.101563	39.204094
40.000000	1199.013672	46.112091
40.000000	1197.924805	46.101719
40.000000	1196.834961	59.918747
40.000000	1195.746094	46.080971
40.000000	1194.656250	50.677658
40.000000	1193.566406	62.181305
40.000000	1192.476563	50.654842
40.000000	1191.385742	48.341457
40.000000	1190.294922	39.124744
40.000000	1189.204102	43.717804
40.000000	1188.113281	46.008373
40.000000	1187.021484	55.197601
40.000000	1185.930664	43.688251
40.000000	1184.838867	48.276127
40.000000	1183.746094	45.966892
40.000000	1182.654297	41.360870
40.000000	1181.561523	55.135387
40.000000	1180.468750	57.419735
40.000000	1179.375977	45.925419
40.000000	1178.282227	48.210804
40.000000	1177.188477	57.380856
40.000000	1176.094727	45.894318
40.000000	1175.000977	50.472347
40.000000	1173.906250	41.286228
40.000000	1172.811523	55.035862
40.000000	1171.716797	52.730782
40.000000	1170.622070	52.718861
40.000000	1169.526367	38.957306
40.000000	1168.431641	48.112846
40.000000	1167.334961	48.101963
40.000000	1166.239258	50.381134
40.000000	1165.143555	45.790665
40.000000	1164.046875	43.491287
40.000000	1162.950195	36.615952
40.000000	1161.852539	43.471596
40.000000	1160.755859	45.749214
40.000000	1159.658203	45.738850
40.000000	1158.560547	41.155640
40.000000	1157.461914	38.860409
40.000000	1156.364258	38.851601
40.000000	1155.265625	54.836884
40.000000	1154.166992	36.549633
40.000000	1153.067383	38.825180
40.000000	1151.967773	29.683109
40.000000	1150.869141	38.807568
40.000000	1149.768555	34.234200
40.000000	1148.668945	41.071716
40.000000	1147.568359	47.906128
40.000000	1146.467773	29.649441
40.000000	1145.367188	41.043747
40.000000	1144.266602	34.195354
40.000000	1143.165039	38.745930
40.000000	1142.063477	41.015781
40.000000	1140.961914	36.450184
40.000000	1139.859375	45.552372
40.000000	1138.757813	34.156513
40.000000	1137.655273	52.361408
40.000000	1136.551758	50.073433
40.000000	1135.449219	47.786491
40.000000	1134.345703	43.225559
40.000000	1133.242188	36.392185
40.000000	1132.138672	43.205883
40.000000	1131.034180	56.836903
40.000000	1129.929688	31.821415
40.000000	1128.825195	29.541727
40.000000	1127.720703	47.710377
40.000000	1126.616211	43.156696
40.000000	1125.510742	31.792421
40.000000	1124.405273	40.866650
40.000000	1123.298828	40.857334
40.000000	1122.193359	52.194683
40.000000	1121.086914	49.913960
40.000000	1119.980469	52.170872
40.000000	1118.873047	38.552277
40.000000	1117.766602	34.008949
40.000000	1116.659180	27.200949
40.000000	1115.551758	43.058334
40.000000	1114.443359	33.985657
40.000000	1113.335938	31.712700
40.000000	1112.227539	33.970127
40.000000	1111.118164	43.018993
40.000000	1110.009766	49.800079
40.000000	1108.900391	31.683714
40.000000	1107.791016	40.726887
40.000000	1106.681641	31.669222
40.000000	1105.572266	36.185116
40.000000	1104.461914	29.393677
40.000000	1103.351563	40.689621
40.000000	1102.241211	38.420288
40.000000	1101.129883	45.189991
40.000000	1100.018555	38.402695
40.000000	1098.907227	42.910824
40.000000	1097.795898	33.869205
40.000000	1096.683594	33.861443
40.000000	1095.572266	49.652061
40.000000	1094.458984	38.358704
40.000000	1093.346680	42.861660
40.000000	1092.234375	38.341110
40.000000	1091.121094	38.332314
40.000000	1090.006836	49.595139
40.000000	1088.893555	38.314720
40.000000	1087.779297	40.559212
40.000000	1086.666016	24.780495
40.000000	1085.550781	40.540585
40.000000	1084.436523	54.041695
40.000000	1083.321289	33.768299
40.000000	1082.206055	40.512642
40.000000	1081.090820	45.003700
40.000000	1079.974609	31.495346
40.000000	1078.859375	24.740652
40.000000	1077.743164	42.724022
40.000000	1076.625977	35.969845
40.000000	1075.509766	44.951958
40.000000	1074.392578	44.941612
40.000000	1073.275391	42.684700
40.000000	1072.158203	33.690685
40.000000	1071.040039	42.665039
40.000000	1069.921875	24.695122
40.000000	1068.803711	42.645378
40.000000	1067.685547	29.171692
40.000000	1066.566406	31.408424
40.000000	1065.447266	56.073540
40.000000	1064.328125	42.606060
40.000000	1063.208008	49.321949
40.000000	1062.088867	38.103622
40.000000	1060.968750	42.576572
40.000000	1059.847656	38.086033
40.000000	1058.727539	40.317074
40.000000	1057.606445	38.068443
40.000000	1056.485352	38.059647
40.000000	1055.364258	35.812565
40.000000	1054.242188	38.042057
40.000000	1053.120117	49.219517
40.000000	1051.998047	46.971401
40.000000	1050.875977	42.488106
40.000000	1049.752930	35.771179
40.000000	1048.629883	31.292540
40.000000	1047.506836	33.519958
40.000000	1046.383789	42.448788
40.000000	1045.259766	40.205326
40.000000	1044.135742	22.331120
40.000000	1043.011719	46.884487
40.000000	1041.886719	44.641544
40.000000	1040.762695	46.862759
40.000000	1039.637695	40.158768
40.000000	1038.511719	51.302082
40.000000	1037.386719	40.140144
40.000000	1036.260742	42.360321
40.000000	1035.134766	46.808437
40.000000	1034.007813	35.655293
40.000000	1032.881836	35.647018
40.000000	1031.754883	44.548424
40.000000	1030.627930	46.764980
40.000000	1029.500000	42.301342
40.000000	1028.372070	35.613907
40.000000	1027.245117	55.633793
40.000000	1026.116211	46.721523
40.000000	1024.988281	24.467487
40.000000	1023.859375	42.252193
40.000000	1022.730469	46.688927
40.000000	1021.601563	53.346355
40.000000	1020.471680	40.000454
40.000000	1019.341797	33.325951
40.000000	1018.211914	31.096977
40.000000	1017.082031	33.310429
40.000000	1015.951172	31.082491
40.000000	1014.820313	53.271851
40.000000	1013.689453	44.382862
40.000000	1012.557617	42.153889
40.000000	1011.426758	31.053516
40.000000	1010.293945	39.916634
40.000000	1009.162109	46.558540
40.000000	1008.030273	59.847012
40.000000	1006.897461	44.320770
40.000000	1005.764648	35.448338
40.000000	1004.630859	39.870064
40.000000	1003.498047	48.718697
40.000000	1002.364258	44.279373
40.000000	1001.230469	46.482475
40.000000	1000.095703	46.471607
40.000000	998.960938	53.097988
40.000000	997.826172	37.602280
40.000000	996.691406	39.804863
40.000000	995.556641	37.584682
40.000000	994.420898	53.048309
40.000000	993.285156	41.986744
40.000000	992.148438	48.604843
40.000000	991.012695	35.340698
40.000000	989.875977	57.415176
40.000000	988.739258	37.531895
40.000000	987.601563	41.937576
40.000000	986.463867	39.721020
40.000000	985.326172	41.917908
40.000000	984.188477	39.702385
40.000000	983.049805	30.872385
40.000000	981.912109	39.683750
40.000000	980.773438	52.899242
40.000000	979.633789	44.072350
40.000000	978.495117	57.280598
40.000000	977.355469	44.051643
40.000000	976.214844	37.435097
40.000000	975.075195	39.627842
40.000000	973.934570	39.618523
40.000000	972.793945	33.007671
40.000000	971.653320	46.199867
40.000000	970.511719	52.787422
40.000000	969.370117	41.780205
40.000000	968.228516	39.571926
40.000000	967.086914	30.770916
40.000000	965.944336	35.158478
40.000000	964.801758	41.740852
40.000000	963.659180	37.338276
40.000000	962.516602	46.112877
40.000000	961.373047	41.711334
40.000000	960.229492	48.285942
40.000000	959.084961	39.497360
40.000000	957.941406	50.456936
40.000000	956.796875	43.865238
40.000000	955.652344	50.433113
40.000000	954.506836	35.075615
40.000000	953.362305	43.834164
40.000000	952.216797	35.059040
40.000000	951.070313	24.097393
40.000000	949.924805	35.042465
40.000000	948.778320	52.551266
40.000000	947.631836	52.538834
40.000000	946.485352	50.337799
40.000000	945.337891	54.702049
40.000000	944.190430	43.751278
40.000000	943.042969	45.927959
40.000000	941.894531	34.984444
40.000000	940.747070	41.534180
40.000000	939.597656	37.153351
40.000000	938.449219	41.514488
40.000000	937.300781	45.873554
40.000000	936.151367	45.862671
40.000000	935.001953	30.567860
40.000000	933.851563	50.206707
40.000000	932.701172	41.465256
40.000000	931.550781	43.637272
40.000000	930.400391	47.989597
40.000000	929.250000	39.254887
40.000000	928.098633	34.884937
40.000000	926.947266	43.595806
40.000000	925.794922	41.406166
40.000000	924.642578	54.468838
40.000000	923.490234	54.455875
40.000000	922.337891	56.620632
40.000000	921.185547	47.898357
40.000000	920.032227	45.710270
40.000000	918.878906	43.523220
40.000000	917.724609	54.391064
40.000000	916.571289	41.327354
40.000000	915.416992	60.888950
40.000000	914.262695	43.481735
40.000000	913.107422	36.950657
40.000000	911.952148	58.672333
40.000000	910.796875	54.313267
40.000000	909.641602	28.236156
40.000000	908.485352	43.429863
40.000000	907.329102	47.761440
40.000000	906.172852	65.113670
40.000000	905.016602	26.039242
40.000000	903.859375	39.049526
40.000000	902.702148	45.546883
40.000000	901.544922	43.367607
40.000000	900.386719	49.860813
40.000000	899.228516	49.848877
40.000000	898.070313	54.170586
40.000000	896.911133	51.991306
40.000000	895.752930	36.818352
40.000000	894.593750	28.148462
40.000000	893.433594	43.294945
40.000000	892.274414	47.613022
40.000000	891.114258	32.455635
40.000000	889.954102	45.426987
40.000000	888.792969	49.741425
40.000000	887.632813	38.918728
40.000000	886.470703	56.202438
40.000000	885.309570	45.383373
40.000000	884.148438	41.051281
40.000000	882.986328	45.361561
40.000000	881.824219	36.712433
40.000000	880.661133	38.862640
40.000000	879.498047	47.487354
40.000000	878.334961	30.211954
40.000000	877.171875	38.834591
40.000000	876.007813	38.825237
40.000000	874.843750	40.972324
40.000000	873.679688	43.118370
40.000000	872.515625	49.574177
40.000000	871.350586	36.632946
40.000000	870.185547	30.161034
40.000000	869.020508	45.230637
40.000000	867.854492	49.526363
40.000000	866.688477	45.208809
40.000000	865.522461	58.111576
40.000000	864.356445	53.794018
40.000000	863.189453	43.024815
40.000000	862.022461	38.712975
40.000000	860.854492	55.905224
40.000000	859.687500	42.993618
40.000000	858.519531	49.430702
40.000000	857.351563	51.567383
40.000000	856.182617	38.666176
40.000000	855.013672	49.394817
40.000000	853.844727	45.088692
40.000000	852.675781	51.517448
40.000000	851.505859	57.943085
40.000000	850.335938	51.492477
40.000000	849.166016	49.334988
40.000000	847.995117	42.889584
40.000000	846.825195	42.879177
40.000000	845.653320	38.581890
40.000000	844.482422	47.144196
40.000000	843.310547	55.702335
40.000000	842.138672	42.837540
40.000000	840.966797	47.109840
40.000000	839.793945	36.394207
40.000000	838.622070	38.525673
40.000000	837.448242	49.215271
40.000000	836.275391	49.203293
40.000000	835.101563	49.191315
40.000000	833.927734	42.764641
40.000000	832.753906	49.167358
40.000000	831.579102	47.018188
40.000000	830.404297	42.733387
40.000000	829.229492	46.995266
40.000000	828.054688	51.255058
40.000000	826.878906	42.702126
40.000000	825.703125	53.364632
40.000000	824.526367	49.083473
40.000000	823.350586	55.472115
40.000000	822.173828	55.458565
40.000000	820.996094	49.047508
40.000000	819.819336	44.771561
40.000000	818.641602	44.760612
40.000000	817.463867	46.880600
40.000000	816.285156	46.869129
40.000000	815.107422	51.117443
40.000000	813.928711	57.493042
40.000000	812.749023	48.963558
40.000000	811.570313	55.336544
40.000000	810.390625	51.067368
40.000000	809.209961	51.054848
40.000000	808.030273	63.802906
40.000000	806.849609	70.165977
40.000000	805.668945	59.520157
40.000000	804.488281	53.129948
40.000000	803.306641	44.618195
40.000000	802.125000	61.600468
40.000000	800.943359	53.090797
40.000000	799.760742	55.200855
40.000000	798.578125	57.309868
40.000000	797.395508	38.197178
40.000000	796.211914	46.673954
40.000000	795.029297	50.904503
40.000000	793.844727	53.012466
40.000000	792.661133	48.759453
40.000000	791.476563	42.389076
40.000000	790.291992	50.854351
40.000000	789.107422	61.433857
40.000000	787.922852	48.711384
40.000000	786.737305	44.464634
40.000000	785.550781	59.271545
40.000000	784.365234	42.326363
40.000000	783.178711	48.663292
40.000000	781.992188	44.420723
40.000000	780.805664	50.753990
40.000000	779.618164	54.969891
40.000000	778.430664	63.411110
40.000000	777.243164	46.489971
40.000000	776.054688	57.041752
40.000000	774.866211	50.691223
40.000000	773.677734	54.901886
40.000000	772.489258	44.332844
40.000000	771.299805	46.432419
40.000000	770.110352	52.751026
40.000000	768.919922	42.190353
40.000000	767.730469	52.724854
40.000000	766.540039	48.494823
40.000000	765.348633	52.698673
40.000000	764.158203	52.685581
40.000000	762.966797	54.779388
40.000000	761.774414	63.191273
40.000000	760.583008	52.646297
40.000000	759.390625	46.317215
40.000000	758.198242	44.200886
40.000000	757.005859	52.607002
40.000000	755.812500	56.801411
40.000000	754.619141	50.477566
40.000000	753.424805	54.670399
40.000000	752.231445	50.452400
40.000000	751.037109	50.439819
40.000000	749.842773	65.135178
40.000000	748.647461	52.515259
40.000000	747.452148	48.301975
40.000000	746.256836	52.489033
40.000000	745.060547	44.079769
40.000000	743.865234	58.758335
40.000000	742.668945	54.547668
40.000000	741.471680	50.339100
40.000000	740.274414	60.811192
40.000000	739.077148	62.892380
40.000000	737.879883	56.588966
40.000000	736.681641	62.860878
40.000000	735.484375	56.560612
40.000000	734.285156	48.169186
40.000000	733.086914	56.532253
40.000000	731.887695	41.865238
40.000000	730.688477	46.040203
40.000000	729.488281	48.120853
40.000000	728.288086	71.117310
40.000000	727.087891	77.372917
40.000000	725.887695	68.990936
40.000000	724.686523	60.613152
40.000000	723.485352	60.597904
40.000000	722.284180	48.048313
40.000000	721.082031	56.390343
40.000000	719.879883	58.464146
40.000000	718.677734	60.536896
40.000000	717.474609	54.260780
40.000000	716.272461	50.074245
40.000000	715.068359	58.405220
40.000000	713.865234	56.305107
40.000000	712.661133	54.206047
40.000000	711.457031	47.939396
40.000000	710.251953	56.262466
40.000000	709.047852	39.582100
40.000000	707.842773	45.820320
40.000000	706.636719	47.890945
40.000000	705.431641	60.368961
40.000000	704.225586	58.272522
40.000000	703.018555	56.177132
40.000000	701.812500	43.682259
40.000000	700.605469	58.228252
40.000000	699.397461	45.739174
40.000000	698.190430	56.120205
40.000000	696.982422	47.793972
40.000000	695.774414	49.859314
40.000000	694.565430	56.077488
40.000000	693.356445	60.216076
40.000000	692.147461	56.049000
40.000000	690.938477	62.260834
40.000000	689.728516	53.945671
40.000000	688.518555	37.337502
40.000000	687.308594	41.475555
40.000000	686.097656	39.391747
40.000000	684.886719	55.963486
40.000000	683.674805	53.877033
40.000000	682.463867	49.719971
40.000000	681.251953	47.636154
40.000000	680.040039	49.694611
40.000000	678.827148	43.471687
40.000000	677.614258	57.947453
40.000000	676.401367	53.794605
40.000000	675.187500	51.712364
40.000000	673.973633	53.767113
40.000000	672.759766	43.416180
40.000000	671.545898	51.672703
40.000000	670.331055	51.659481
40.000000	669.116211	39.251152
40.000000	667.900391	47.502384
40.000000	666.684570	53.684586
40.000000	665.468750	66.056396
40.000000	664.252930	59.848259
40.000000	663.036133	55.706497
40.000000	661.819336	53.629528
40.000000	660.602539	53.615757
40.000000	659.384766	55.663597
40.000000	658.166992	78.321228
40.000000	656.948242	51.513878
40.000000	655.730469	51.500629
40.000000	654.511719	43.249397
40.000000	653.291992	61.768948
40.000000	652.073242	51.460869
40.000000	650.853516	41.158089
40.000000	649.633789	59.663849
40.000000	648.413086	61.705307
40.000000	647.192383	39.069950
40.000000	645.971680	51.394562
40.000000	644.750000	53.436546
40.000000	643.528320	57.532185
40.000000	642.306641	47.246372
40.000000	641.084961	51.341476
40.000000	639.862305	47.221943
40.000000	638.639648	49.262325
40.000000	637.416016	55.405769
40.000000	636.192383	55.391426
40.000000	634.968750	34.867046
40.000000	633.745117	57.413197
40.000000	632.520508	49.198551
40.000000	631.295898	53.284607
40.000000	630.070313	61.466286
40.000000	628.844727	51.208611
40.000000	627.619141	59.386559
40.000000	626.393555	53.229290
40.000000	625.166992	45.028461
40.000000	623.940430	57.294048
40.000000	622.712891	63.416195
40.000000	621.486328	71.580292
40.000000	620.258789	57.249325
40.000000	619.030273	59.278500
40.000000	617.802734	57.219498
40.000000	616.573242	53.118538
40.000000	615.344727	51.062195
40.000000	614.115234	59.216690
60.000000	1722.566406	38.555969
60.000000	1721.590820	28.274378
60.000000	1720.613281	30.838530
60.000000	1719.636719	38.540356
60.000000	1718.659180	33.394875
60.000000	1717.682617	30.819790
60.000000	1716.705078	30.813541
60.000000	1715.727539	41.076389
60.000000	1714.749023	28.234291
60.000000	1713.771484	46.192192
60.000000	1712.792969	25.657120
60.000000	1711.814453	28.217102
60.000000	1710.835938	33.340714
60.000000	1709.856445	43.590538
60.000000	1708.877930	25.636282
60.000000	1707.898438	30.757286
60.000000	1706.918945	30.751034
60.000000	1705.939453	40.993038
60.000000	1704.958984	48.669331
60.000000	1703.979492	40.976360
60.000000	1702.999023	38.407520
60.000000	1702.018555	33.279739
60.000000	1701.038086	28.154045
60.000000	1700.056641	40.942997
60.000000	1699.076172	46.051483
60.000000	1698.094727	40.926308
60.000000	1697.113281	46.032711
60.000000	1696.131836	33.239067
60.000000	1695.149414	46.013935
60.000000	1694.167969	40.892929
60.000000	1693.185547	40.884583
60.000000	1692.203125	53.650059
60.000000	1691.219727	40.867886
60.000000	1690.237305	30.644653
60.000000	1689.253906	30.638391
60.000000	1688.270508	40.842838
60.000000	1687.287109	35.730179
60.000000	1686.303711	53.584305
60.000000	1685.320313	43.368900
60.000000	1684.335938	43.360023
60.000000	1683.351563	43.351151
60.000000	1682.367188	45.891819
60.000000	1681.382813	45.882423
60.000000	1680.397461	28.033514
60.000000	1679.412109	33.123730
60.000000	1678.426758	40.759312
60.000000	1677.441406	43.297890
60.000000	1676.456055	30.556950
60.000000	1675.469727	38.188354
60.000000	1674.483398	35.635151
60.000000	1673.497070	50.896908
60.000000	1672.510742	45.797817
60.000000	1671.524414	43.244610
60.000000	1670.537109	45.779007
60.000000	1669.549805	45.769604
60.000000	1668.562500	48.302429
60.000000	1667.575195	40.667370
60.000000	1666.587891	45.741386
60.000000	1665.599609	33.028652
60.000000	1664.611328	50.802856
60.000000	1663.623047	50.792404
60.000000	1662.634766	48.242851
60.000000	1661.646484	48.232922
60.000000	1660.657227	32.994675
60.000000	1659.667969	40.600468
60.000000	1658.678711	53.277134
60.000000	1657.689453	38.047253
60.000000	1656.699219	40.575371
60.000000	1655.708984	43.102444
60.000000	1654.718750	45.628468
60.000000	1653.728516	50.687840
60.000000	1652.738281	58.278988
60.000000	1651.747070	58.266960
60.000000	1650.756836	43.057991
60.000000	1649.765625	45.581402
60.000000	1648.773438	37.976654
60.000000	1647.782227	37.968807
60.000000	1646.790039	32.899502
60.000000	1645.798828	48.073944
60.000000	1644.806641	53.123375
60.000000	1643.813477	53.112389
60.000000	1642.821289	42.986847
60.000000	1641.828125	50.562298
60.000000	1640.834961	63.189793
60.000000	1639.841797	50.541370
60.000000	1638.848633	40.424721
60.000000	1637.854492	47.994415
60.000000	1636.861328	42.933475
60.000000	1635.867188	35.349651
60.000000	1634.873047	42.915680
60.000000	1633.877930	35.334999
60.000000	1632.883789	45.421291
60.000000	1631.888672	60.549156
60.000000	1630.893555	55.491879
60.000000	1629.898438	55.480362
60.000000	1628.902344	50.426224
60.000000	1627.907227	47.894966
60.000000	1626.911133	52.925549
60.000000	1625.915039	50.394814
60.000000	1624.918945	55.422775
60.000000	1623.921875	68.004723
60.000000	1622.924805	57.917908
60.000000	1621.928711	65.458801
60.000000	1620.930664	45.308208
60.000000	1619.933594	55.365181
60.000000	1618.936523	65.417961
60.000000	1617.938477	52.826588
60.000000	1616.940430	55.330616
60.000000	1615.942383	50.290089
60.000000	1614.943359	65.363495
60.000000	1613.945313	47.755680
60.000000	1612.946289	47.745731
60.000000	1611.947266	47.735779
60.000000	1610.948242	52.749599
60.000000	1609.948242	62.784046
60.000000	1608.949219	50.216763
60.000000	1607.949219	50.206284
60.000000	1606.949219	47.686020
60.000000	1605.948242	37.639000
60.000000	1604.948242	37.631142
60.000000	1603.947266	55.180817
60.000000	1602.946289	45.138512
60.000000	1601.945313	47.636253
60.000000	1600.944336	52.639591
60.000000	1599.942383	50.122467
60.000000	1598.940430	45.100788
60.000000	1597.938477	45.091358
60.000000	1596.936523	50.091030
60.000000	1595.934570	42.568470
60.000000	1594.931641	45.063065
60.000000	1593.928711	45.053635
60.000000	1592.925781	47.546658
60.000000	1591.922852	65.050224
60.000000	1590.918945	70.039413
60.000000	1589.915039	47.516788
60.000000	1588.911133	47.506836
60.000000	1587.907227	44.997044
60.000000	1586.903320	59.983479
60.000000	1585.898438	52.474541
60.000000	1584.894531	67.453117
60.000000	1583.889648	59.945747
60.000000	1582.883789	64.927605
60.000000	1581.878906	64.913979
60.000000	1580.873047	57.411850
60.000000	1579.867188	62.391079
60.000000	1578.861328	62.377979
60.000000	1577.855469	47.397305
60.000000	1576.848633	57.363632
60.000000	1575.842773	49.870937
60.000000	1574.835938	54.846500
60.000000	1573.828125	39.879978
60.000000	1572.821289	59.807388
60.000000	1571.813477	52.320457
60.000000	1570.805664	57.291306
60.000000	1569.797852	39.846436
60.000000	1568.790039	47.307682
60.000000	1567.782227	39.829662
60.000000	1566.773438	34.843616
60.000000	1565.764648	57.231030
60.000000	1564.755859	39.804504
60.000000	1563.747070	54.719662
60.000000	1562.737305	42.274464
60.000000	1561.727539	52.210388
60.000000	1560.717773	54.685066
60.000000	1559.708008	47.218052
60.000000	1558.697266	32.300274
60.000000	1557.687500	52.166359
60.000000	1556.676758	47.188175
60.000000	1555.666016	52.144344
60.000000	1554.654297	49.650795
60.000000	1553.643555	34.748219
60.000000	1552.631836	54.592812
60.000000	1551.620117	37.214508
60.000000	1550.608398	34.726204
60.000000	1549.596680	59.518055
60.000000	1548.583984	44.629105
60.000000	1547.571289	49.577412
60.000000	1546.558594	44.610237
60.000000	1545.545898	42.122978
60.000000	1544.532227	32.204876
60.000000	1543.518555	42.105156
60.000000	1542.504883	44.572495
60.000000	1541.491211	51.990238
60.000000	1540.477539	37.128021
60.000000	1539.462891	49.493546
60.000000	1538.448242	51.957214
60.000000	1537.433594	49.472580
60.000000	1536.418945	44.515884
60.000000	1535.404297	49.451611
60.000000	1534.388672	54.385242
60.000000	1533.373047	39.544518
60.000000	1532.357422	59.304195
60.000000	1531.340820	56.821133
60.000000	1530.325195	51.869160
60.000000	1529.308594	44.449844
60.000000	1528.291992	51.847145
60.000000	1527.275391	44.430977
60.000000	1526.257813	56.760857
60.000000	1525.240234	29.608070
60.000000	1524.223633	49.336304
60.000000	1523.205078	59.190987
60.000000	1522.187500	61.644173
60.000000	1521.168945	41.909130
60.000000	1520.151367	34.506062
60.000000	1519.132813	44.355503
60.000000	1518.113281	36.955059
60.000000	1517.094727	49.262928
60.000000	1516.075195	24.626225
60.000000	1515.055664	54.166164
60.000000	1514.036133	41.846764
60.000000	1513.016602	27.071552
60.000000	1511.996094	44.289471
60.000000	1510.975586	49.200043
60.000000	1509.955078	41.811127
60.000000	1508.934570	56.555943
60.000000	1507.914063	41.793312
60.000000	1506.892578	44.242310
60.000000	1505.871094	46.690258
60.000000	1504.849609	46.680302
60.000000	1503.827148	56.495686
60.000000	1502.805664	49.116203
60.000000	1501.783203	46.650436
60.000000	1500.760742	44.185719
60.000000	1499.738281	31.905096
60.000000	1498.714844	46.620571
60.000000	1497.691406	41.704235
60.000000	1496.668945	44.147995
60.000000	1495.644531	34.329994
60.000000	1494.621094	41.677517
60.000000	1493.596680	46.570797
60.000000	1492.573242	49.011414
60.000000	1491.547852	46.550892
60.000000	1490.523438	44.091415
60.000000	1489.499023	48.979984
60.000000	1488.473633	44.072556
60.000000	1487.448242	48.959030
60.000000	1486.422852	51.395981
60.000000	1485.396484	46.491173
60.000000	1484.371094	26.910179
60.000000	1483.344727	41.579556
60.000000	1482.318359	31.789322
60.000000	1481.291992	53.785789
60.000000	1480.264648	41.552841
60.000000	1479.237305	46.431461
60.000000	1478.209961	36.648560
60.000000	1477.182617	48.854271
60.000000	1476.155273	51.285988
60.000000	1475.126953	39.066658
60.000000	1474.098633	48.822849
60.000000	1473.070313	53.693615
60.000000	1472.041992	46.361809
60.000000	1471.012695	36.593571
60.000000	1469.983398	43.902859
60.000000	1468.954102	36.577862
60.000000	1467.924805	63.388016
60.000000	1466.895508	43.874584
60.000000	1465.865234	36.554298
60.000000	1464.834961	56.037884
60.000000	1463.804688	41.410404
60.000000	1462.773438	41.401505
60.000000	1461.743164	41.392605
60.000000	1460.711914	36.515034
60.000000	1459.680664	41.374805
60.000000	1458.649414	38.932617
60.000000	1457.617188	51.088066
60.000000	1456.584961	51.077072
60.000000	1455.552734	46.202644
60.000000	1454.520508	29.174335
60.000000	1453.488281	36.460068
60.000000	1452.455078	53.463253
60.000000	1451.421875	38.873989
60.000000	1450.388672	38.865616
60.000000	1449.355469	53.428707
60.000000	1448.321289	46.133030
60.000000	1447.288086	55.833210
60.000000	1446.253906	48.540150
60.000000	1445.218750	48.529686
60.000000	1444.184570	46.093258
60.000000	1443.149414	36.381565
60.000000	1442.114258	46.073372
60.000000	1441.079102	53.336605
60.000000	1440.043945	55.748962
60.000000	1439.007813	55.736927
60.000000	1437.971680	43.610786
60.000000	1436.935547	48.445965
60.000000	1435.899414	46.013729
60.000000	1434.862305	36.318779
60.000000	1433.826172	43.573120
60.000000	1432.789063	60.505142
60.000000	1431.750977	55.652699
60.000000	1430.713867	33.868233
60.000000	1429.675781	45.954094
60.000000	1428.637695	38.689816
60.000000	1427.599609	33.846264
60.000000	1426.561523	36.256008
60.000000	1425.522461	48.330887
60.000000	1424.483398	45.904404
60.000000	1423.444336	38.647972
60.000000	1422.405273	45.884533
60.000000	1421.365234	38.631241
60.000000	1420.326172	48.278591
60.000000	1419.286133	45.854725
60.000000	1418.245117	55.496326
60.000000	1417.205078	36.185413
60.000000	1416.164063	33.765732
60.000000	1415.123047	43.403675
60.000000	1414.082031	40.983471
60.000000	1413.041016	55.436199
60.000000	1411.999023	40.965694
60.000000	1410.957031	53.002930
60.000000	1409.915039	50.582726
60.000000	1408.873047	43.347214
60.000000	1407.831055	48.153118
60.000000	1406.788086	38.514130
60.000000	1405.745117	40.912380
60.000000	1404.702148	43.309582
60.000000	1403.658203	50.516869
60.000000	1402.614258	45.695808
60.000000	1401.571289	52.899441
60.000000	1400.526367	60.099937
60.000000	1399.482422	38.455597
60.000000	1398.437500	45.656094
60.000000	1397.393555	52.853458
60.000000	1396.347656	64.851501
60.000000	1395.302734	69.640160
60.000000	1394.257813	55.219837
60.000000	1393.211914	52.807480
60.000000	1392.166016	50.396168
60.000000	1391.120117	69.579559
60.000000	1390.073242	50.374229
60.000000	1389.026367	59.956261
60.000000	1387.979492	67.136383
60.000000	1386.932617	50.341320
60.000000	1385.885742	64.710457
60.000000	1384.837891	67.092514
60.000000	1383.790039	55.099693
60.000000	1382.742188	47.902332
60.000000	1381.694336	64.654053
60.000000	1380.645508	43.093300
60.000000	1379.596680	40.690350
60.000000	1378.547852	47.860558
60.000000	1377.499023	52.635128
60.000000	1376.450195	55.015625
60.000000	1375.400391	43.046307
60.000000	1374.350586	52.600670
60.000000	1373.300781	43.027512
60.000000	1372.250000	45.408012
60.000000	1371.199219	59.734333
60.000000	1370.148438	62.110134
60.000000	1369.097656	54.931576
60.000000	1368.046875	62.082993
60.000000	1366.995117	52.520279
60.000000	1365.943359	59.669090
60.000000	1364.891602	66.814766
60.000000	1363.839844	59.642994
60.000000	1362.787109	54.859554
60.000000	1361.735352	54.847549
60.000000	1360.682617	45.298931
60.000000	1359.628906	47.672649
60.000000	1358.576172	81.025764
60.000000	1357.522461	64.329903
60.000000	1356.468750	61.933750
60.000000	1355.415039	57.157093
60.000000	1354.360352	54.763550
60.000000	1353.306641	40.468536
60.000000	1352.251953	49.979591
60.000000	1351.196289	66.624847
60.000000	1350.141602	45.199810
60.000000	1349.085938	38.054653
60.000000	1348.030273	47.557884
60.000000	1346.974609	52.302200
60.000000	1345.918945	57.044430
60.000000	1344.862305	66.537231
60.000000	1343.806641	49.891972
60.000000	1342.749023	45.130447
60.000000	1341.692383	47.495308
60.000000	1340.635742	54.607609
60.000000	1339.578125	49.848171
60.000000	1338.520508	47.464024
60.000000	1337.462891	23.726799
60.000000	1336.404297	49.815327
60.000000	1335.345703	35.574558
60.000000	1334.287109	52.164551
60.000000	1333.228516	33.188324
60.000000	1332.169922	49.771542
60.000000	1331.110352	45.021492
60.000000	1330.050781	30.797403
60.000000	1328.991211	40.264668
60.000000	1327.930664	33.151840
60.000000	1326.871094	49.716820
60.000000	1325.810547	54.439770
60.000000	1324.750000	40.229233
60.000000	1323.688477	52.049896
60.000000	1322.627930	47.307667
60.000000	1321.566406	44.932384
60.000000	1320.504883	49.651165
60.000000	1319.443359	54.367867
60.000000	1318.380859	30.722891
60.000000	1317.318359	42.530010
60.000000	1316.255859	68.505470
60.000000	1315.193359	63.766888
60.000000	1314.129883	37.779453
60.000000	1313.067383	40.131813
60.000000	1312.003906	59.004353
60.000000	1310.939453	56.631680
60.000000	1309.875977	42.464386
60.000000	1308.811523	47.172234
60.000000	1307.747070	47.161819
60.000000	1306.682617	30.648415
60.000000	1305.617188	40.069843
60.000000	1304.552734	51.843636
60.000000	1303.487305	40.052139
60.000000	1302.421875	56.531704
60.000000	1301.355469	49.454308
60.000000	1300.290039	58.861160
60.000000	1299.223633	49.432446
60.000000	1298.157227	54.128323
60.000000	1297.089844	54.116352
60.000000	1296.023438	56.456745
60.000000	1294.956055	47.036877
60.000000	1293.888672	49.377792
60.000000	1292.820313	37.612846
60.000000	1291.752930	44.655369
60.000000	1290.684570	44.645481
60.000000	1289.616211	51.683319
60.000000	1288.546875	42.276985
60.000000	1287.478516	39.919418
60.000000	1286.409180	53.996658
60.000000	1285.339844	44.596050
60.000000	1284.270508	56.319366
60.000000	1283.200195	44.576283
60.000000	1282.129883	39.875198
60.000000	1281.059570	37.521275
60.000000	1279.989258	42.202072
60.000000	1278.918945	46.880787
60.000000	1277.847656	44.526863
60.000000	1276.776367	44.516983
60.000000	1275.705078	49.192059
60.000000	1274.632813	42.155262
60.000000	1273.561523	46.828777
60.000000	1272.489258	42.136539
60.000000	1271.416016	53.829174
60.000000	1270.343750	37.438061
60.000000	1269.270508	56.144615
60.000000	1268.197266	44.437939
60.000000	1267.124023	37.413105
60.000000	1266.050781	44.418182
60.000000	1264.976563	51.420143
60.000000	1263.902344	51.408707
60.000000	1262.828125	46.724792
60.000000	1261.753906	35.035797
60.000000	1260.678711	42.033600
60.000000	1259.603516	44.358925
60.000000	1258.528320	44.349049
60.000000	1257.452148	58.341019
60.000000	1256.376953	34.996815
60.000000	1255.300781	44.319424
60.000000	1254.224609	55.969959
60.000000	1253.147461	34.973431
60.000000	1252.071289	53.613976
60.000000	1250.994141	53.602024
60.000000	1249.916992	51.260071
60.000000	1248.839844	44.260189
60.000000	1247.761719	46.579281
60.000000	1246.683594	44.240444
60.000000	1245.605469	46.558498
60.000000	1244.527344	41.893299
60.000000	1243.448242	46.537720
60.000000	1242.369141	44.200966
60.000000	1241.290039	39.539402
60.000000	1240.210938	46.506554
60.000000	1239.130859	39.521744
60.000000	1238.050781	44.161491
60.000000	1236.970703	41.827854
60.000000	1235.890625	51.111507
60.000000	1234.810547	46.454620
60.000000	1233.729492	37.155388
60.000000	1232.648438	37.147079
60.000000	1231.566406	44.102291
60.000000	1230.485352	34.809811
60.000000	1229.403320	51.042965
60.000000	1228.321289	44.072697
60.000000	1227.239258	51.020123
60.000000	1226.156250	44.052967
60.000000	1225.073242	32.452816
60.000000	1223.990234	50.985859
60.000000	1222.907227	34.755299
60.000000	1221.823242	27.798010
60.000000	1220.740234	44.003654
60.000000	1219.656250	46.309254
60.000000	1218.571289	39.354042
60.000000	1217.487305	41.659645
60.000000	1216.402344	39.336399
60.000000	1215.317383	43.954350
60.000000	1214.232422	27.754414
60.000000	1213.146484	48.559326
60.000000	1212.060547	39.301109
60.000000	1210.974609	36.980980
60.000000	1209.888672	48.526638
60.000000	1208.802734	48.515743
60.000000	1207.715820	50.814602
60.000000	1206.628906	53.112423
60.000000	1205.541992	43.865623
60.000000	1204.454102	41.547569
60.000000	1203.366211	50.768948
60.000000	1202.278320	50.757534
60.000000	1201.190430	46.132839
60.000000	1200.101563	34.591850
60.000000	1199.013672	50.723301
60.000000	1197.924805	46.101719
60.000000	1196.834961	46.091343
60.000000	1195.746094	39.168827
60.000000	1194.656250	57.588249
60.000000	1193.566406	39.151192
60.000000	1192.476563	43.747364
60.000000	1191.385742	50.643433
60.000000	1190.294922	55.234936
60.000000	1189.204102	64.426239
60.000000	1188.113281	55.210045
60.000000	1187.021484	68.997002
60.000000	1185.930664	45.987633
60.000000	1184.838867	57.471577
60.000000	1183.746094	45.966892
60.000000	1182.654297	48.254349
60.000000	1181.561523	50.540771
60.000000	1180.468750	62.013313
60.000000	1179.375977	43.629150
60.000000	1178.282227	52.802311
60.000000	1177.188477	41.314217
60.000000	1176.094727	45.894318
60.000000	1175.000977	59.649136
60.000000	1173.906250	66.516701
60.000000	1172.811523	61.915348
60.000000	1171.716797	57.316067
60.000000	1170.622070	57.303112
60.000000	1169.526367	59.581760
60.000000	1168.431641	41.239582
60.000000	1167.334961	50.392532
60.000000	1166.239258	50.381134
60.000000	1165.143555	61.817398
60.000000	1164.046875	57.225380
60.000000	1162.950195	48.058437
60.000000	1161.852539	45.759575
60.000000	1160.755859	52.611595
60.000000	1159.658203	43.451908
60.000000	1158.560547	52.587761
60.000000	1157.461914	45.718128
60.000000	1156.364258	38.851601
60.000000	1155.265625	50.267143
60.000000	1154.166992	68.530563
60.000000	1153.067383	43.392849
60.000000	1151.967773	52.516270
60.000000	1150.869141	50.221558
60.000000	1149.768555	47.927883
60.000000	1148.668945	52.480530
60.000000	1147.568359	45.624882
60.000000	1146.467773	34.210892
60.000000	1145.367188	41.043747
60.000000	1144.266602	47.873497
60.000000	1143.165039	43.304276
60.000000	1142.063477	59.245018
60.000000	1140.961914	50.119003
60.000000	1139.859375	43.274754
60.000000	1138.757813	38.710712
60.000000	1137.655273	59.191158
60.000000	1136.551758	54.625561
60.000000	1135.449219	47.786491
60.000000	1134.345703	54.600708
60.000000	1133.242188	45.490234
60.000000	1132.138672	31.835913
60.000000	1131.034180	38.649094
60.000000	1129.929688	47.732124
60.000000	1128.825195	47.721249
60.000000	1127.720703	65.885757
60.000000	1126.616211	49.970909
60.000000	1125.510742	43.146858
60.000000	1124.405273	40.866650
60.000000	1123.298828	40.857334
60.000000	1122.193359	49.925350
60.000000	1121.086914	27.225798
60.000000	1119.980469	29.487883
60.000000	1118.873047	54.426746
60.000000	1117.766602	52.147057
60.000000	1116.659180	38.534676
60.000000	1115.551758	47.590790
60.000000	1114.443359	47.579918
60.000000	1113.335938	29.447506
60.000000	1112.227539	49.822853
60.000000	1111.118164	40.754837
60.000000	1110.009766	56.591000
60.000000	1108.900391	45.262447
60.000000	1107.791016	45.252098
60.000000	1106.681641	38.455482
60.000000	1105.572266	49.754532
60.000000	1104.461914	24.871572
60.000000	1103.351563	42.950157
60.000000	1102.241211	45.200340
60.000000	1101.129883	31.632992
60.000000	1100.018555	49.697601
60.000000	1098.907227	47.427753
60.000000	1097.795898	40.643044
60.000000	1096.683594	38.376301
60.000000	1095.572266	40.624416
60.000000	1094.458984	47.384281
60.000000	1093.346680	33.838154
60.000000	1092.234375	45.107189
60.000000	1091.121094	42.841999
60.000000	1090.006836	31.560543
60.000000	1088.893555	49.583755
60.000000	1087.779297	45.065792
60.000000	1086.666016	42.802670
60.000000	1085.550781	29.279312
60.000000	1084.436523	42.783009
60.000000	1083.321289	36.019516
60.000000	1082.206055	42.763348
60.000000	1081.090820	49.504070
60.000000	1079.974609	40.494019
60.000000	1078.859375	42.733852
60.000000	1077.743164	49.469921
60.000000	1076.625977	38.217960
60.000000	1075.509766	44.951958
60.000000	1074.392578	44.941612
60.000000	1073.275391	29.205322
60.000000	1072.158203	35.936733
60.000000	1071.040039	56.138210
60.000000	1069.921875	42.655209
60.000000	1068.803711	35.911900
60.000000	1067.685547	44.879528
60.000000	1066.566406	49.356098
60.000000	1065.447266	33.644123
60.000000	1064.328125	42.606060
60.000000	1063.208008	29.144789
60.000000	1062.088867	47.069180
60.000000	1060.968750	47.058315
60.000000	1059.847656	42.566742
60.000000	1058.727539	51.516262
60.000000	1057.606445	35.829121
60.000000	1056.485352	40.298450
60.000000	1055.364258	47.003994
60.000000	1054.242188	44.755360
60.000000	1053.120117	40.270512
60.000000	1051.998047	33.550999
60.000000	1050.875977	44.724319
60.000000	1049.752930	55.892467
60.000000	1048.629883	44.703629
60.000000	1047.506836	33.519958
60.000000	1046.383789	49.151226
60.000000	1045.259766	46.906216
60.000000	1044.135742	49.128464
60.000000	1043.011719	44.651894
60.000000	1041.886719	60.266087
60.000000	1040.762695	33.473400
60.000000	1039.637695	44.620853
60.000000	1038.511719	40.149456
60.000000	1037.386719	37.910133
60.000000	1036.260742	37.901340
60.000000	1035.134766	57.953304
60.000000	1034.007813	42.340660
60.000000	1032.881836	53.470524
60.000000	1031.754883	46.775845
60.000000	1030.627930	40.084270
60.000000	1029.500000	55.659660
60.000000	1028.372070	44.517384
60.000000	1027.245117	37.830978
60.000000	1026.116211	44.496689
60.000000	1024.988281	44.486340
60.000000	1023.859375	42.252193
60.000000	1022.730469	42.242363
60.000000	1021.601563	40.009769
60.000000	1020.471680	35.555962
60.000000	1019.341797	44.434601
60.000000	1018.211914	39.981831
60.000000	1017.082031	35.531124
60.000000	1015.951172	33.302670
60.000000	1014.820313	33.294907
60.000000	1013.689453	48.821148
60.000000	1012.557617	51.028393
60.000000	1011.426758	37.707840
60.000000	1010.293945	35.481453
60.000000	1009.162109	37.690247
60.000000	1008.030273	44.331120
60.000000	1006.897461	48.752846
60.000000	1005.764648	53.172504
60.000000	1004.630859	53.160088
60.000000	1003.498047	42.075237
60.000000	1002.364258	48.707310
60.000000	1001.230469	50.909378
60.000000	1000.095703	39.832806
60.000000	998.960938	37.611076
60.000000	997.826172	42.026077
60.000000	996.691406	55.284531
60.000000	995.556641	46.428139
60.000000	994.420898	48.627617
60.000000	993.285156	33.147430
60.000000	992.148438	41.976910
60.000000	991.012695	41.967079
60.000000	989.875977	24.291037
60.000000	988.739258	52.986202
60.000000	987.601563	44.144817
60.000000	986.463867	52.961357
60.000000	985.326172	55.155140
60.000000	984.188477	44.113762
60.000000	983.049805	41.898239
60.000000	981.912109	37.479099
60.000000	980.773438	37.470299
60.000000	979.633789	52.886822
60.000000	978.495117	44.061996
60.000000	977.355469	46.254227
60.000000	976.214844	41.839226
60.000000	975.075195	50.635578
60.000000	973.934570	41.819553
60.000000	972.793945	50.611763
60.000000	971.653320	39.599884
60.000000	970.511719	32.992138
60.000000	969.370117	46.178120
60.000000	968.228516	50.564129
60.000000	967.086914	43.958450
60.000000	965.944336	39.553288
60.000000	964.801758	41.740852
60.000000	963.659180	50.516491
60.000000	962.516602	46.112877
60.000000	961.373047	50.492668
60.000000	960.229492	52.675575
60.000000	959.084961	37.303062
60.000000	957.941406	43.875595
60.000000	956.796875	61.411335
60.000000	955.652344	43.854881
60.000000	954.506836	37.267841
60.000000	953.362305	30.683914
60.000000	952.216797	35.059040
60.000000	951.070313	41.622772
60.000000	949.924805	37.232620
60.000000	948.778320	48.171993
60.000000	947.631836	52.538834
60.000000	946.485352	52.526402
60.000000	945.337891	56.890129
60.000000	944.190430	45.938839
60.000000	943.042969	37.179779
60.000000	941.894531	41.544025
60.000000	940.747070	41.534180
60.000000	939.597656	48.080811
60.000000	938.449219	50.254383
60.000000	937.300781	45.873554
60.000000	936.151367	39.310860
60.000000	935.001953	37.118114
60.000000	933.851563	48.023804
60.000000	932.701172	43.647640
60.000000	931.550781	54.546593
60.000000	930.400391	43.626907
60.000000	929.250000	34.893230
60.000000	928.098633	45.786480
60.000000	926.947266	45.775597
60.000000	925.794922	41.406166
60.000000	924.642578	56.647591
60.000000	923.490234	47.921169
60.000000	922.337891	45.732048
60.000000	921.185547	47.898357
60.000000	920.032227	58.770348
60.000000	918.878906	54.404026
60.000000	917.724609	69.620560
60.000000	916.571289	69.603966
60.000000	915.416992	67.412766
60.000000	914.262695	52.178082
60.000000	913.107422	47.818497
60.000000	911.952148	52.153187
60.000000	910.796875	47.795673
60.000000	909.641602	49.956276
60.000000	908.485352	39.086880
60.000000	907.329102	52.103386
60.000000	906.172852	36.897747
60.000000	905.016602	45.568676
60.000000	903.859375	54.235451
60.000000	902.702148	43.377983
60.000000	901.544922	32.525703
60.000000	900.386719	41.189365
60.000000	899.228516	47.681534
60.000000	898.070313	54.170586
60.000000	896.911133	38.993481
60.000000	895.752930	47.647278
60.000000	894.593750	49.801128
60.000000	893.433594	43.294945
60.000000	892.274414	36.791878
60.000000	891.114258	45.437889
60.000000	889.954102	54.079746
60.000000	888.792969	38.928074
60.000000	887.632813	56.215939
60.000000	886.470703	54.040806
60.000000	885.309570	56.188938
60.000000	884.148438	38.890686
60.000000	882.986328	43.201485
60.000000	881.824219	47.510208
60.000000	880.661133	53.975887
60.000000	879.498047	51.804386
60.000000	878.334961	47.475925
60.000000	877.171875	49.621975
60.000000	876.007813	49.610027
60.000000	874.843750	53.910954
60.000000	873.679688	45.274288
60.000000	872.515625	56.040371
60.000000	871.350586	43.097584
60.000000	870.185547	51.704632
60.000000	869.020508	38.769119
60.000000	867.854492	51.679684
60.000000	866.688477	49.514408
60.000000	865.522461	53.807014
60.000000	864.356445	51.642258
60.000000	863.189453	45.176056
60.000000	862.022461	43.014420
60.000000	860.854492	47.304420
60.000000	859.687500	40.843937
60.000000	858.519531	42.983219
60.000000	857.351563	58.013306
60.000000	856.182617	49.406780
60.000000	855.013672	51.542416
60.000000	853.844727	49.382851
60.000000	852.675781	68.689934
60.000000	851.505859	51.504963
60.000000	850.335938	42.910397
60.000000	849.166016	51.479988
60.000000	847.995117	49.323021
60.000000	846.825195	45.023136
60.000000	845.653320	49.299084
60.000000	844.482422	53.572948
60.000000	843.310547	47.132744
60.000000	842.138672	49.263168
60.000000	840.966797	38.544415
60.000000	839.793945	47.098385
60.000000	838.622070	42.806301
60.000000	837.448242	51.355064
60.000000	836.275391	49.203293
60.000000	835.101563	42.775059
60.000000	833.927734	38.488178
60.000000	832.753906	49.167358
60.000000	831.579102	68.390091
60.000000	830.404297	40.596718
60.000000	829.229492	44.859116
60.000000	828.054688	34.170040
60.000000	826.878906	55.512764
60.000000	825.703125	53.364632
60.000000	824.526367	49.083473
60.000000	823.350586	42.670860
60.000000	822.173828	53.325542
60.000000	820.996094	44.782509
60.000000	819.819336	57.563435
60.000000	818.641602	44.760612
60.000000	817.463867	46.880600
60.000000	816.285156	66.042862
60.000000	815.107422	57.507122
60.000000	813.928711	66.010529
60.000000	812.749023	68.123207
60.000000	811.570313	72.363174
60.000000	810.390625	51.067368
60.000000	809.209961	63.818558
60.000000	808.030273	59.549377
60.000000	806.849609	48.903561
60.000000	805.668945	55.268715
60.000000	804.488281	61.630741
60.000000	803.306641	63.740280
60.000000	802.125000	67.972931
60.000000	800.943359	55.214432
60.000000	799.760742	61.570187
60.000000	798.578125	50.942104
60.000000	797.395508	65.784035
60.000000	796.211914	61.524754
60.000000	795.029297	44.541439
60.000000	793.844727	61.494461
60.000000	792.661133	44.519501
60.000000	791.476563	42.389076
60.000000	790.291992	55.092216
60.000000	789.107422	42.368176
60.000000	787.922852	50.829269
60.000000	786.737305	74.107727
60.000000	785.550781	59.271545
60.000000	784.365234	35.977409
60.000000	783.178711	55.010677
60.000000	781.992188	54.997086
60.000000	780.805664	71.901489
60.000000	779.618164	52.855667
60.000000	778.430664	59.183701
60.000000	777.243164	46.489971
60.000000	776.054688	61.267067
60.000000	774.866211	59.139759
60.000000	773.677734	69.683167
60.000000	772.489258	59.110458
60.000000	771.299805	59.095802
60.000000	770.110352	61.191189
60.000000	768.919922	69.614082
60.000000	767.730469	59.051834
60.000000	766.540039	56.928703
60.000000	765.348633	46.374832
60.000000	764.158203	59.007851
60.000000	762.966797	61.100086
60.000000	761.774414	58.978519
60.000000	760.583008	58.963852
60.000000	759.390625	48.422543
60.000000	758.198242	58.934513
60.000000	757.005859	61.024120
60.000000	755.812500	50.490143
60.000000	754.619141	58.890491
60.000000	753.424805	44.156860
60.000000	752.231445	60.963318
60.000000	751.037109	63.049774
60.000000	749.842773	39.921558
60.000000	748.647461	48.314037
60.000000	747.452148	58.802402
60.000000	746.256836	41.991226
60.000000	745.060547	52.475918
60.000000	743.865234	71.349411
60.000000	742.668945	52.449680
60.000000	741.471680	52.436562
60.000000	740.274414	39.841816
60.000000	739.077148	44.024666
60.000000	737.879883	67.068405
60.000000	736.681641	50.288704
60.000000	735.484375	67.034798
60.000000	734.285156	43.980560
60.000000	733.086914	62.813614
60.000000	731.887695	60.704594
60.000000	730.688477	71.153038
60.000000	729.488281	83.688438
60.000000	728.288086	66.933937
60.000000	727.087891	75.281761
60.000000	725.887695	64.809662
60.000000	724.686523	68.973587
60.000000	723.485352	56.418739
60.000000	722.284180	62.671711
60.000000	721.082031	60.567402
60.000000	719.879883	35.496090
60.000000	718.677734	48.012020
60.000000	717.474609	75.130310
60.000000	716.272461	43.814964
60.000000	715.068359	47.975716
60.000000	713.865234	56.305107
60.000000	712.661133	54.206047
60.000000	711.457031	50.023716
60.000000	710.251953	60.430058
60.000000	709.047852	56.248249
60.000000	707.842773	77.061447
60.000000	706.636719	47.890945
60.000000	705.431641	60.368961
60.000000	704.225586	56.191360
60.000000	703.018555	58.257767
60.000000	701.812500	54.082794
60.000000	700.605469	56.148670
60.000000	699.397461	51.976334
60.000000	698.190430	68.591362
60.000000	696.982422	47.793972
60.000000	695.774414	62.324142
60.000000	694.565430	51.923599
60.000000	693.356445	53.986828
60.000000	692.147461	60.200775
60.000000	690.938477	60.185474
60.000000	689.728516	53.945671
60.000000	688.518555	64.303474
60.000000	687.308594	51.844444
60.000000	686.097656	51.831245
60.000000	684.886719	45.599876
60.000000	683.674805	62.165810
60.000000	682.463867	64.221626
60.000000	681.251953	51.778427
60.000000	680.040039	64.188873
60.000000	678.827148	66.242569
60.000000	677.614258	47.599693
60.000000	676.401367	51.725582
60.000000	675.187500	57.917850
60.000000	673.973633	53.767113
60.000000	672.759766	47.551052
60.000000	671.545898	59.940338
60.000000	670.331055	51.659481
60.000000	669.116211	59.909653
60.000000	667.900391	64.024948
60.000000	666.684570	57.814171
60.000000	665.468750	53.670826
60.000000	664.252930	51.593327
60.000000	663.036133	59.832905
60.000000	661.819336	57.754875
60.000000	660.602539	49.491467
60.000000	659.384766	59.786827
60.000000	658.166992	49.466038
60.000000	656.948242	51.513878
60.000000	655.730469	47.380577
60.000000	654.511719	49.427883
60.000000	653.291992	57.651020
60.000000	652.073242	41.168694
60.000000	650.853516	61.737133
60.000000	649.633789	53.491726
60.000000	648.413086	45.250561
60.000000	647.192383	55.520454
60.000000	645.971680	53.450344
60.000000	644.750000	51.381294
60.000000	643.528320	49.313301
60.000000	642.306641	67.788269
60.000000	641.084961	57.502453
60.000000	639.862305	45.168816
60.000000	638.639648	55.420113
60.000000	637.416016	59.509903
60.000000	636.192383	47.185287
60.000000	634.968750	47.173065
60.000000	633.745117	59.463669
60.000000	632.520508	61.498192
60.000000	631.295898	63.531647
60.000000	630.070313	61.466286
60.000000	628.844727	59.401985
60.000000	627.619141	45.051872
60.000000	626.393555	57.323849
60.000000	625.166992	51.168705
60.000000	623.940430	53.201614
60.000000	622.712891	59.324825
60.000000	621.486328	55.219082
60.000000	620.258789	61.338562
60.000000	619.030273	59.278500
60.000000	617.802734	67.437263
60.000000	616.573242	57.204578
60.000000	615.344727	71.487076
60.000000	614.115234	71.468414
80.000000	1722.566406	20.563183
80.000000	1721.590820	30.844776
80.000000	1720.613281	28.268652
80.000000	1719.636719	41.109711
80.000000	1718.659180	48.807892
80.000000	1717.682617	35.956421
80.000000	1716.705078	30.813541
80.000000	1715.727539	41.076389
80.000000	1714.749023	33.367798
80.000000	1713.771484	20.529863
80.000000	1712.792969	56.445663
80.000000	1711.814453	38.477867
80.000000	1710.835938	33.340714
80.000000	1709.856445	41.026390
80.000000	1708.877930	35.890797
80.000000	1707.898438	38.446609
80.000000	1706.918945	46.126549
80.000000	1705.939453	30.744780
80.000000	1704.958984	43.546246
80.000000	1703.979492	56.342495
80.000000	1702.999023	38.407520
80.000000	1702.018555	30.719759
80.000000	1701.038086	35.832420
80.000000	1700.056641	35.825123
80.000000	1699.076172	28.142574
80.000000	1698.094727	40.926308
80.000000	1697.113281	35.803219
80.000000	1696.131836	35.795918
80.000000	1695.149414	46.013935
80.000000	1694.167969	40.892929
80.000000	1693.185547	28.108150
80.000000	1692.203125	30.657175
80.000000	1691.219727	30.650915
80.000000	1690.237305	30.644653
80.000000	1689.253906	35.744789
80.000000	1688.270508	35.737484
80.000000	1687.287109	38.282333
80.000000	1686.303711	51.032673
80.000000	1685.320313	38.266674
80.000000	1684.335938	38.258846
80.000000	1683.351563	35.700947
80.000000	1682.367188	38.243183
80.000000	1681.382813	30.588282
80.000000	1680.397461	35.679020
80.000000	1679.412109	43.315647
80.000000	1678.426758	40.759312
80.000000	1677.441406	35.657085
80.000000	1676.456055	43.289013
80.000000	1675.469727	30.550682
80.000000	1674.483398	43.271252
80.000000	1673.497070	61.076290
80.000000	1672.510742	40.709171
80.000000	1671.524414	38.157009
80.000000	1670.537109	45.779007
80.000000	1669.549805	33.055824
80.000000	1668.562500	22.880098
80.000000	1667.575195	53.375923
80.000000	1666.587891	50.823761
80.000000	1665.599609	38.109982
80.000000	1664.611328	45.722572
80.000000	1663.623047	33.015060
80.000000	1662.634766	48.242851
80.000000	1661.646484	33.001472
80.000000	1660.657227	35.532726
80.000000	1659.667969	48.213055
80.000000	1658.678711	48.203121
80.000000	1657.689453	48.193188
80.000000	1656.699219	30.431528
80.000000	1655.708984	45.637882
80.000000	1654.718750	53.233215
80.000000	1653.728516	40.550274
80.000000	1652.738281	35.474167
80.000000	1651.747070	40.533539
80.000000	1650.756836	40.525169
80.000000	1649.765625	45.581402
80.000000	1648.773438	45.571987
80.000000	1647.782227	37.968807
80.000000	1646.790039	40.491692
80.000000	1645.798828	50.604153
80.000000	1644.806641	40.474953
80.000000	1643.813477	55.641548
80.000000	1642.821289	48.044125
80.000000	1641.828125	55.618530
80.000000	1640.834961	42.969059
80.000000	1639.841797	37.906025
80.000000	1638.848633	48.004356
80.000000	1637.854492	47.994415
80.000000	1636.861328	63.137463
80.000000	1635.867188	42.924580
80.000000	1634.873047	53.013489
80.000000	1633.877930	53.002495
80.000000	1632.883789	50.468102
80.000000	1631.888672	47.934750
80.000000	1630.893555	40.357731
80.000000	1629.898438	40.349354
80.000000	1628.902344	45.383602
80.000000	1627.907227	42.853390
80.000000	1626.911133	47.885021
80.000000	1625.915039	57.954033
80.000000	1624.918945	57.941994
80.000000	1623.921875	52.892563
80.000000	1622.924805	55.399738
80.000000	1621.928711	60.423512
80.000000	1620.930664	57.893822
80.000000	1619.933594	72.981377
80.000000	1618.936523	67.934036
80.000000	1617.938477	50.311035
80.000000	1616.940430	45.270504
80.000000	1615.942383	52.804592
80.000000	1614.943359	57.821556
80.000000	1613.945313	50.269138
80.000000	1612.946289	37.693996
80.000000	1611.947266	32.661324
80.000000	1610.948242	52.749599
80.000000	1609.948242	47.715874
80.000000	1608.949219	42.684246
80.000000	1607.949219	37.654713
80.000000	1606.949219	50.195808
80.000000	1605.948242	50.185333
80.000000	1604.948242	47.666111
80.000000	1603.947266	35.115063
80.000000	1602.946289	40.123119
80.000000	1601.945313	50.143421
80.000000	1600.944336	40.106358
80.000000	1599.942383	35.085728
80.000000	1598.940430	42.595188
80.000000	1597.938477	42.586285
80.000000	1596.936523	37.568272
80.000000	1595.934570	42.568470
80.000000	1594.931641	45.063065
80.000000	1593.928711	55.065552
80.000000	1592.925781	45.044201
80.000000	1591.922852	55.042496
80.000000	1590.918945	60.033787
80.000000	1589.915039	52.518559
80.000000	1588.911133	55.007912
80.000000	1587.907227	54.996384
80.000000	1586.903320	42.488297
80.000000	1585.898438	57.472115
80.000000	1584.894531	52.463535
80.000000	1583.889648	54.950268
80.000000	1582.883789	42.452663
80.000000	1581.878906	39.947063
80.000000	1580.873047	52.419514
80.000000	1579.867188	49.912865
80.000000	1578.861328	47.407265
80.000000	1577.855469	72.343254
80.000000	1576.848633	37.411064
80.000000	1575.842773	39.896751
80.000000	1574.835938	37.395340
80.000000	1573.828125	42.372478
80.000000	1572.821289	49.839489
80.000000	1571.813477	32.388855
80.000000	1570.805664	47.327599
80.000000	1569.797852	42.336838
80.000000	1568.790039	37.348171
80.000000	1567.782227	52.276432
80.000000	1566.773438	59.731915
80.000000	1565.764648	44.789501
80.000000	1564.755859	52.243408
80.000000	1563.747070	32.334343
80.000000	1562.737305	22.380598
80.000000	1561.727539	29.834507
80.000000	1560.717773	44.742325
80.000000	1559.708008	39.762569
80.000000	1558.697266	47.208092
80.000000	1557.687500	57.134583
80.000000	1556.676758	42.220997
80.000000	1555.666016	47.178215
80.000000	1554.654297	49.650795
80.000000	1553.643555	57.086361
80.000000	1552.631836	39.703865
80.000000	1551.620117	49.619347
80.000000	1550.608398	54.569748
80.000000	1549.596680	44.638542
80.000000	1548.583984	44.629105
80.000000	1547.571289	42.140800
80.000000	1546.558594	42.131889
80.000000	1545.545898	39.645157
80.000000	1544.532227	37.159470
80.000000	1543.518555	42.105156
80.000000	1542.504883	56.953743
80.000000	1541.491211	49.514511
80.000000	1540.477539	49.504028
80.000000	1539.462891	42.069511
80.000000	1538.448242	54.431370
80.000000	1537.433594	49.472580
80.000000	1536.418945	54.408306
80.000000	1535.404297	39.561291
80.000000	1534.388672	46.969074
80.000000	1533.373047	56.845242
80.000000	1532.357422	49.420162
80.000000	1531.340820	49.409679
80.000000	1530.325195	66.688919
80.000000	1529.308594	41.980408
80.000000	1528.291992	54.316055
80.000000	1527.275391	54.304523
80.000000	1526.257813	66.632309
80.000000	1525.240234	46.879444
80.000000	1524.223633	44.402672
80.000000	1523.205078	39.460655
80.000000	1522.187500	36.986504
80.000000	1521.168945	34.513401
80.000000	1520.151367	41.900219
80.000000	1519.132813	39.427113
80.000000	1518.113281	41.882401
80.000000	1517.094727	54.189224
80.000000	1516.075195	46.789825
80.000000	1515.055664	49.241966
80.000000	1514.036133	49.231487
80.000000	1513.016602	41.837852
80.000000	1511.996094	59.052628
80.000000	1510.975586	44.280037
80.000000	1509.955078	41.811127
80.000000	1508.934570	51.638035
80.000000	1507.914063	29.501162
80.000000	1506.892578	31.952780
80.000000	1505.871094	36.860729
80.000000	1504.849609	39.309731
80.000000	1503.827148	41.757679
80.000000	1502.805664	41.748772
80.000000	1501.783203	56.471581
80.000000	1500.760742	44.185719
80.000000	1499.738281	31.905096
80.000000	1498.714844	49.074284
80.000000	1497.691406	31.891474
80.000000	1496.668945	34.337330
80.000000	1495.644531	51.494991
80.000000	1494.621094	36.774277
80.000000	1493.596680	53.924084
80.000000	1492.573242	56.363129
80.000000	1491.547852	46.550892
80.000000	1490.523438	51.439983
80.000000	1489.499023	51.428982
80.000000	1488.473633	31.830179
80.000000	1487.448242	39.167225
80.000000	1486.422852	44.053696
80.000000	1485.396484	46.491173
80.000000	1484.371094	44.034840
80.000000	1483.344727	48.917122
80.000000	1482.318359	31.789322
80.000000	1481.291992	29.337704
80.000000	1480.264648	34.219986
80.000000	1479.237305	41.543938
80.000000	1478.209961	41.535034
80.000000	1477.182617	51.296986
80.000000	1476.155273	53.728176
80.000000	1475.126953	43.949989
80.000000	1474.098633	39.058281
80.000000	1473.070313	41.490520
80.000000	1472.041992	39.041523
80.000000	1471.012695	31.714428
80.000000	1469.983398	36.585716
80.000000	1468.954102	41.454910
80.000000	1467.924805	26.818007
80.000000	1466.895508	46.312061
80.000000	1465.865234	38.991253
80.000000	1464.834961	48.728596
80.000000	1463.804688	34.102688
80.000000	1462.773438	41.401505
80.000000	1461.743164	36.522884
80.000000	1460.711914	63.292725
80.000000	1459.680664	38.940990
80.000000	1458.649414	43.799194
80.000000	1457.617188	58.386360
80.000000	1456.584961	38.915863
80.000000	1455.552734	43.770924
80.000000	1454.520508	48.623894
80.000000	1453.488281	53.474766
80.000000	1452.455078	51.033104
80.000000	1451.421875	34.014740
80.000000	1450.388672	36.436516
80.000000	1449.355469	53.428707
80.000000	1448.321289	50.989140
80.000000	1447.288086	31.557901
80.000000	1446.253906	41.259129
80.000000	1445.218750	24.264843
80.000000	1444.184570	41.241337
80.000000	1443.149414	43.657879
80.000000	1442.114258	33.948803
80.000000	1441.079102	33.941475
80.000000	1440.043945	58.172829
80.000000	1439.007813	50.890240
80.000000	1437.971680	48.456429
80.000000	1436.935547	50.868263
80.000000	1435.899414	31.483076
80.000000	1434.862305	33.897526
80.000000	1433.826172	38.731663
80.000000	1432.789063	36.303085
80.000000	1431.750977	36.295238
80.000000	1430.713867	29.029915
80.000000	1429.675781	36.279545
80.000000	1428.637695	45.944153
80.000000	1427.599609	45.934216
80.000000	1426.561523	55.592548
80.000000	1425.522461	45.914341
80.000000	1424.483398	28.992256
80.000000	1423.444336	50.725464
80.000000	1422.405273	41.054581
80.000000	1421.365234	45.874596
80.000000	1420.326172	26.553225
80.000000	1419.286133	45.854725
80.000000	1418.245117	55.496326
80.000000	1417.205078	43.422497
80.000000	1416.164063	48.236759
80.000000	1415.123047	43.403675
80.000000	1414.082031	48.215847
80.000000	1413.041016	48.205391
80.000000	1411.999023	48.194935
80.000000	1410.957031	48.184483
80.000000	1409.915039	52.991428
80.000000	1408.873047	48.163570
80.000000	1407.831055	48.153118
80.000000	1406.788086	52.956928
80.000000	1405.745117	48.132210
80.000000	1404.702148	40.903492
80.000000	1403.658203	48.111305
80.000000	1402.614258	48.100853
80.000000	1401.571289	43.281361
80.000000	1400.526367	45.675953
80.000000	1399.482422	57.683399
80.000000	1398.437500	52.864952
80.000000	1397.393555	67.268036
80.000000	1396.347656	74.459129
80.000000	1395.302734	48.027699
80.000000	1394.257813	57.620697
80.000000	1393.211914	52.807480
80.000000	1392.166016	50.396168
80.000000	1391.120117	55.183788
80.000000	1390.073242	57.570545
80.000000	1389.026367	40.770256
80.000000	1387.979492	40.761379
80.000000	1386.932617	43.149704
80.000000	1385.885742	31.156885
80.000000	1384.837891	62.300190
80.000000	1383.790039	47.912777
80.000000	1382.742188	52.692566
80.000000	1381.694336	47.891888
80.000000	1380.645508	59.851807
80.000000	1379.596680	43.083900
80.000000	1378.547852	55.039642
80.000000	1377.499023	59.812645
80.000000	1376.450195	47.839672
80.000000	1375.400391	45.437771
80.000000	1374.350586	57.382545
80.000000	1373.300781	62.150852
80.000000	1372.250000	38.238327
80.000000	1371.199219	43.008720
80.000000	1370.148438	64.498985
80.000000	1369.097656	64.484894
80.000000	1368.046875	57.307377
80.000000	1366.995117	45.358425
80.000000	1365.943359	54.895561
80.000000	1364.891602	52.497318
80.000000	1363.839844	59.642994
80.000000	1362.787109	45.318760
80.000000	1361.735352	45.308846
80.000000	1360.682617	50.067242
80.000000	1359.628906	42.905384
80.000000	1358.576172	33.363552
80.000000	1357.522461	59.564724
80.000000	1356.468750	30.966875
80.000000	1355.415039	45.249367
80.000000	1354.360352	42.858429
80.000000	1353.306641	47.610043
80.000000	1352.251953	45.219631
80.000000	1351.196289	49.968639
80.000000	1350.141602	42.820873
80.000000	1349.085938	40.433067
80.000000	1348.030273	47.557884
80.000000	1346.974609	30.905846
80.000000	1345.918945	35.652767
80.000000	1344.862305	33.268616
80.000000	1343.806641	42.764549
80.000000	1342.749023	40.379875
80.000000	1341.692383	45.120541
80.000000	1340.635742	52.233368
80.000000	1339.578125	35.605839
80.000000	1338.520508	59.330029
80.000000	1337.462891	30.844837
80.000000	1336.404297	37.954536
80.000000	1335.345703	45.061108
80.000000	1334.287109	33.195621
80.000000	1333.228516	30.817730
80.000000	1332.169922	49.771542
80.000000	1331.110352	63.977909
80.000000	1330.050781	54.487713
80.000000	1328.991211	47.370197
80.000000	1327.930664	47.359776
80.000000	1326.871094	35.512012
80.000000	1325.810547	52.072823
80.000000	1324.750000	42.595657
80.000000	1323.688477	37.854469
80.000000	1322.627930	37.846134
80.000000	1321.566406	47.297245
80.000000	1320.504883	56.744190
80.000000	1319.443359	44.912586
80.000000	1318.380859	42.539387
80.000000	1317.318359	33.078899
80.000000	1316.255859	51.969666
80.000000	1315.193359	40.149521
80.000000	1314.129883	42.501884
80.000000	1313.067383	49.574593
80.000000	1312.003906	54.284004
80.000000	1310.939453	42.473759
80.000000	1309.875977	37.746120
80.000000	1308.811523	51.889458
80.000000	1307.747070	49.519913
80.000000	1306.682617	44.793835
80.000000	1305.617188	54.212139
80.000000	1304.552734	35.347935
80.000000	1303.487305	44.764156
80.000000	1302.421875	42.398777
80.000000	1301.355469	40.034439
80.000000	1300.290039	58.861160
80.000000	1299.223633	44.724590
80.000000	1298.157227	44.714703
80.000000	1297.089844	32.940388
80.000000	1296.023438	47.047287
80.000000	1294.956055	39.981346
80.000000	1293.888672	37.621174
80.000000	1292.820313	44.665257
80.000000	1291.752930	49.355934
80.000000	1290.684570	46.995243
80.000000	1289.616211	39.937111
80.000000	1288.546875	49.323151
80.000000	1287.478516	44.615822
80.000000	1286.409180	46.953617
80.000000	1285.339844	42.248890
80.000000	1284.270508	37.546246
80.000000	1283.200195	53.960762
80.000000	1282.129883	42.220798
80.000000	1281.059570	44.556515
80.000000	1279.989258	46.891190
80.000000	1278.918945	28.128471
80.000000	1277.847656	42.183346
80.000000	1276.776367	37.487984
80.000000	1275.705078	35.137184
80.000000	1274.632813	37.471344
80.000000	1273.561523	46.828777
80.000000	1272.489258	56.182053
80.000000	1271.416016	39.786781
80.000000	1270.343750	44.457699
80.000000	1269.270508	42.108459
80.000000	1268.197266	49.115620
80.000000	1267.124023	32.736465
80.000000	1266.050781	37.404785
80.000000	1264.976563	35.059189
80.000000	1263.902344	49.071949
80.000000	1262.828125	56.069748
80.000000	1261.753906	32.700077
80.000000	1260.678711	39.698399
80.000000	1259.603516	37.354881
80.000000	1258.528320	44.349049
80.000000	1257.452148	49.006454
80.000000	1256.376953	34.996815
80.000000	1255.300781	44.319424
80.000000	1254.224609	46.641632
80.000000	1253.147461	44.299679
80.000000	1252.071289	48.951889
80.000000	1250.994141	39.618885
80.000000	1249.916992	34.950047
80.000000	1248.839844	51.248638
80.000000	1247.761719	39.592388
80.000000	1246.683594	39.583557
80.000000	1245.605469	39.574726
80.000000	1244.527344	44.220703
80.000000	1243.448242	30.249519
80.000000	1242.369141	32.569134
80.000000	1241.290039	41.865250
80.000000	1240.210938	48.831882
80.000000	1239.130859	46.496166
80.000000	1238.050781	46.485779
80.000000	1236.970703	30.209005
80.000000	1235.890625	41.818508
80.000000	1234.810547	39.486427
80.000000	1233.729492	60.377506
80.000000	1232.648438	37.147079
80.000000	1231.566406	51.065811
80.000000	1230.485352	48.733734
80.000000	1229.403320	46.402695
80.000000	1228.321289	55.670776
80.000000	1227.239258	48.701027
80.000000	1226.156250	51.008701
80.000000	1225.073242	37.088932
80.000000	1223.990234	37.080624
80.000000	1222.907227	32.438278
80.000000	1221.823242	41.697014
80.000000	1220.740234	34.739727
80.000000	1219.656250	43.993793
80.000000	1218.571289	27.779325
80.000000	1217.487305	41.659645
80.000000	1216.402344	41.650303
80.000000	1215.317383	37.014191
80.000000	1214.232422	37.005886
80.000000	1213.146484	39.309933
80.000000	1212.060547	46.236599
80.000000	1210.974609	41.603600
80.000000	1209.888672	39.283470
80.000000	1208.802734	41.584923
80.000000	1207.715820	41.575584
80.000000	1206.628906	39.257008
80.000000	1205.541992	39.248188
80.000000	1204.454102	41.547569
80.000000	1203.366211	48.461269
80.000000	1202.278320	43.836052
80.000000	1201.190430	48.439480
80.000000	1200.101563	41.510220
80.000000	1199.013672	43.806488
80.000000	1197.924805	39.186459
80.000000	1196.834961	43.786777
80.000000	1195.746094	46.080971
80.000000	1194.656250	46.070599
80.000000	1193.566406	52.969261
80.000000	1192.476563	46.049854
80.000000	1191.385742	43.737511
80.000000	1190.294922	46.029114
80.000000	1189.204102	50.620617
80.000000	1188.113281	55.210045
80.000000	1187.021484	45.998001
80.000000	1185.930664	57.484539
80.000000	1184.838867	52.873852
80.000000	1183.746094	45.966892
80.000000	1182.654297	39.063046
80.000000	1181.561523	48.243465
80.000000	1180.468750	50.529366
80.000000	1179.375977	34.444065
80.000000	1178.282227	48.210804
80.000000	1177.188477	55.085621
80.000000	1176.094727	50.483749
80.000000	1175.000977	50.472347
80.000000	1173.906250	61.929340
80.000000	1172.811523	45.863220
80.000000	1171.716797	55.023426
80.000000	1170.622070	57.303112
80.000000	1169.526367	61.873367
80.000000	1168.431641	45.821758
80.000000	1167.334961	45.811394
80.000000	1166.239258	41.220928
80.000000	1165.143555	48.080200
80.000000	1164.046875	45.780304
80.000000	1162.950195	52.635429
80.000000	1161.852539	36.607662
80.000000	1160.755859	48.036674
80.000000	1159.658203	48.025795
80.000000	1158.560547	36.582790
80.000000	1157.461914	36.574501
80.000000	1156.364258	59.420094
80.000000	1155.265625	52.552013
80.000000	1154.166992	50.255749
80.000000	1153.067383	52.528183
80.000000	1151.967773	34.249741
80.000000	1150.869141	34.241970
80.000000	1149.768555	54.774723
80.000000	1148.668945	41.071716
80.000000	1147.568359	38.781151
80.000000	1146.467773	38.772346
80.000000	1145.367188	50.164581
80.000000	1144.266602	36.475044
80.000000	1143.165039	34.187584
80.000000	1142.063477	45.573090
80.000000	1140.961914	38.728321
80.000000	1139.859375	43.274754
80.000000	1138.757813	29.602310
80.000000	1137.655273	45.531658
80.000000	1136.551758	40.969173
80.000000	1135.449219	34.133209
80.000000	1134.345703	45.500587
80.000000	1133.242188	47.764744
80.000000	1132.138672	50.027863
80.000000	1131.034180	43.196045
80.000000	1129.929688	36.367332
80.000000	1128.825195	36.359047
80.000000	1127.720703	38.622688
80.000000	1126.616211	29.528265
80.000000	1125.510742	47.688633
80.000000	1124.405273	38.596283
80.000000	1123.298828	34.047775
80.000000	1122.193359	43.117348
80.000000	1121.086914	34.032246
80.000000	1119.980469	47.634274
80.000000	1118.873047	40.820061
80.000000	1117.766602	43.078003
80.000000	1116.659180	49.868404
80.000000	1115.551758	58.921928
80.000000	1114.443359	54.377052
80.000000	1113.335938	52.099434
80.000000	1112.227539	31.705452
80.000000	1111.118164	31.698206
80.000000	1110.009766	31.690960
80.000000	1108.900391	42.999325
80.000000	1107.791016	45.252098
80.000000	1106.681641	38.455482
80.000000	1105.572266	49.754532
80.000000	1104.461914	38.437885
80.000000	1103.351563	38.429089
80.000000	1102.241211	42.940323
80.000000	1101.129883	42.930489
80.000000	1100.018555	24.848801
80.000000	1098.907227	42.910824
80.000000	1097.795898	31.611258
80.000000	1096.683594	40.633728
80.000000	1095.572266	33.853680
80.000000	1094.458984	42.871494
80.000000	1093.346680	31.582277
80.000000	1092.234375	42.851830
80.000000	1091.121094	40.587154
80.000000	1090.006836	40.577843
80.000000	1088.893555	40.568527
80.000000	1087.779297	33.799343
80.000000	1086.666016	40.549900
80.000000	1085.550781	49.549603
80.000000	1084.436523	47.286484
80.000000	1083.321289	45.024399
80.000000	1082.206055	36.011238
80.000000	1081.090820	42.753513
80.000000	1079.974609	33.745014
80.000000	1078.859375	42.733852
80.000000	1077.743164	33.729492
80.000000	1076.625977	53.954769
80.000000	1075.509766	49.447155
80.000000	1074.392578	33.706207
80.000000	1073.275391	40.438137
80.000000	1072.158203	35.936733
80.000000	1071.040039	44.910568
80.000000	1069.921875	53.880264
80.000000	1068.803711	40.400887
80.000000	1067.685547	40.391575
80.000000	1066.566406	42.625721
80.000000	1065.447266	29.158241
80.000000	1064.328125	49.333332
80.000000	1063.208008	40.354324
80.000000	1062.088867	40.345013
80.000000	1060.968750	47.058315
80.000000	1059.847656	40.326385
80.000000	1058.727539	33.597561
80.000000	1057.606445	31.350481
80.000000	1056.485352	40.298450
80.000000	1055.364258	44.765709
80.000000	1054.242188	35.804287
80.000000	1053.120117	33.558762
80.000000	1051.998047	38.024467
80.000000	1050.875977	33.543240
80.000000	1049.752930	35.771179
80.000000	1048.629883	24.586994
80.000000	1047.506836	35.754623
80.000000	1046.383789	44.682934
80.000000	1045.259766	35.738068
80.000000	1044.135742	46.895351
80.000000	1043.011719	44.651894
80.000000	1041.886719	35.713238
80.000000	1040.762695	40.168079
80.000000	1039.637695	51.313980
80.000000	1038.511719	37.918930
80.000000	1037.386719	40.140144
80.000000	1036.260742	33.442360
80.000000	1035.134766	46.808437
80.000000	1034.007813	49.026031
80.000000	1032.881836	26.735262
80.000000	1031.754883	40.093582
80.000000	1030.627930	28.949749
80.000000	1029.500000	48.980503
80.000000	1028.372070	44.517384
80.000000	1027.245117	42.281685
80.000000	1026.116211	28.922848
80.000000	1024.988281	44.486340
80.000000	1023.859375	31.133196
80.000000	1022.730469	42.242363
80.000000	1021.601563	44.455299
80.000000	1020.471680	33.333714
80.000000	1019.341797	46.656334
80.000000	1018.211914	39.981831
80.000000	1017.082031	44.413906
80.000000	1015.951172	33.302670
80.000000	1014.820313	31.075247
80.000000	1013.689453	39.944576
80.000000	1012.557617	39.935261
80.000000	1011.426758	31.053516
80.000000	1010.293945	37.699043
80.000000	1009.162109	28.821955
80.000000	1008.030273	26.598671
80.000000	1006.897461	44.320770
80.000000	1005.764648	31.017296
80.000000	1004.630859	48.730080
80.000000	1003.498047	37.646263
80.000000	1002.364258	48.707310
80.000000	1001.230469	48.695927
80.000000	1000.095703	39.832806
80.000000	998.960938	30.973827
80.000000	997.826172	37.602280
80.000000	996.691406	42.016243
80.000000	995.556641	37.584682
80.000000	994.420898	48.627617
80.000000	993.285156	53.035889
80.000000	992.148438	35.348976
80.000000	991.012695	50.802250
80.000000	989.875977	48.582073
80.000000	988.739258	41.947411
80.000000	987.601563	46.352058
80.000000	986.463867	52.961357
80.000000	985.326172	52.948936
80.000000	984.188477	37.496696
80.000000	983.049805	41.898239
80.000000	981.912109	48.502361
80.000000	980.773438	46.286839
80.000000	979.633789	41.868732
80.000000	978.495117	48.468197
80.000000	977.355469	41.849060
80.000000	976.214844	44.041290
80.000000	975.075195	44.030937
80.000000	973.934570	41.819553
80.000000	972.793945	35.208183
80.000000	971.653320	43.999874
80.000000	970.511719	41.790043
80.000000	969.370117	37.382290
80.000000	968.228516	32.976604
80.000000	967.086914	30.770916
80.000000	965.944336	35.158478
80.000000	964.801758	35.150192
80.000000	963.659180	35.141907
80.000000	962.516602	41.721176
80.000000	961.373047	48.297337
80.000000	960.229492	41.701496
80.000000	959.084961	35.108765
80.000000	957.941406	39.488037
80.000000	956.796875	32.898930
80.000000	955.652344	41.662136
80.000000	954.506836	35.075615
80.000000	953.362305	46.025871
80.000000	952.216797	46.014992
80.000000	951.070313	41.622772
80.000000	949.924805	56.944008
80.000000	948.778320	37.223812
80.000000	947.631836	52.538834
80.000000	946.485352	54.715000
80.000000	945.337891	41.573555
80.000000	944.190430	54.689095
80.000000	943.042969	54.676144
80.000000	941.894531	37.170971
80.000000	940.747070	43.720188
80.000000	939.597656	50.266300
80.000000	938.449219	37.144543
80.000000	937.300781	43.689098
80.000000	936.151367	39.310860
80.000000	935.001953	41.484951
80.000000	933.851563	39.292206
80.000000	932.701172	48.012402
80.000000	931.550781	48.000999
80.000000	930.400391	41.445560
80.000000	929.250000	34.893230
80.000000	928.098633	47.966789
80.000000	926.947266	34.876644
80.000000	925.794922	45.764709
80.000000	924.642578	32.681301
80.000000	923.490234	32.673527
80.000000	922.337891	37.021183
80.000000	921.185547	37.012367
80.000000	920.032227	45.710270
80.000000	918.878906	47.875542
80.000000	917.724609	43.512848
80.000000	916.571289	45.677601
80.000000	915.416992	43.492107
80.000000	914.262695	54.352169
80.000000	913.107422	63.033474
80.000000	911.952148	41.287937
80.000000	910.796875	54.313267
80.000000	909.641602	45.612251
80.000000	908.485352	65.144798
80.000000	907.329102	45.590466
80.000000	906.172852	36.897747
80.000000	905.016602	45.568676
80.000000	903.859375	30.371853
80.000000	902.702148	32.533489
80.000000	901.544922	34.694084
80.000000	900.386719	41.189365
80.000000	899.228516	47.681534
80.000000	898.070313	52.003761
80.000000	896.911133	41.159786
80.000000	895.752930	34.652565
80.000000	894.593750	45.470592
80.000000	893.433594	51.953934
80.000000	892.274414	45.448792
80.000000	891.114258	51.929016
80.000000	889.954102	32.447849
80.000000	888.792969	32.440060
80.000000	887.632813	49.729485
80.000000	886.470703	34.586117
80.000000	885.309570	38.900032
80.000000	884.148438	58.336029
80.000000	882.986328	56.161934
80.000000	881.824219	45.350655
80.000000	880.661133	45.339748
80.000000	879.498047	41.011806
80.000000	878.334961	53.949917
80.000000	877.171875	45.307022
80.000000	876.007813	38.825237
80.000000	874.843750	38.815887
80.000000	873.679688	45.274288
80.000000	872.515625	36.641781
80.000000	871.350586	30.168310
80.000000	870.185547	43.087193
80.000000	869.020508	45.230637
80.000000	867.854492	40.913082
80.000000	866.688477	60.278408
80.000000	865.522461	47.350170
80.000000	864.356445	43.035213
80.000000	863.189453	38.722336
80.000000	862.022461	55.918743
80.000000	860.854492	62.355827
80.000000	859.687500	42.993618
80.000000	858.519531	45.132381
80.000000	857.351563	51.567383
80.000000	856.182617	40.814297
80.000000	855.013672	38.656811
80.000000	853.844727	47.235771
80.000000	852.675781	49.370888
80.000000	851.505859	42.920803
80.000000	850.335938	45.055916
80.000000	849.166016	47.189991
80.000000	847.995117	60.045418
80.000000	846.825195	38.591259
80.000000	845.653320	42.868767
80.000000	844.482422	53.572948
80.000000	843.310547	44.990345
80.000000	842.138672	51.405045
80.000000	840.966797	38.544415
80.000000	839.793945	42.816715
80.000000	838.622070	47.086933
80.000000	837.448242	47.075478
80.000000	836.275391	59.899662
80.000000	835.101563	57.746326
80.000000	833.927734	62.008732
80.000000	832.753906	47.029648
80.000000	831.579102	61.978519
80.000000	830.404297	57.690075
80.000000	829.229492	51.267563
80.000000	828.054688	57.661942
80.000000	826.878906	46.972340
80.000000	825.703125	51.230045
80.000000	824.526367	51.217541
80.000000	823.350586	42.670860
80.000000	822.173828	49.059498
80.000000	820.996094	55.445011
80.000000	819.819336	57.563435
80.000000	818.641602	57.549358
80.000000	817.463867	53.273411
80.000000	816.285156	46.869129
80.000000	815.107422	57.507122
80.000000	813.928711	59.622414
80.000000	812.749023	63.865509
80.000000	811.570313	51.079887
80.000000	810.390625	48.939560
80.000000	809.209961	65.945847
80.000000	808.030273	51.042324
80.000000	806.849609	51.029800
80.000000	805.668945	55.268715
80.000000	804.488281	61.630741
80.000000	803.306641	50.992226
80.000000	802.125000	59.476311
80.000000	800.943359	50.967167
80.000000	799.760742	50.954636
80.000000	798.578125	53.064693
80.000000	797.395508	53.051640
80.000000	796.211914	61.524754
80.000000	795.029297	65.751648
80.000000	793.844727	59.373962
80.000000	792.661133	52.999405
80.000000	791.476563	52.986347
80.000000	790.291992	55.092216
80.000000	789.107422	44.486584
80.000000	787.922852	55.065041
80.000000	786.737305	52.934090
80.000000	785.550781	63.505226
80.000000	784.365234	52.907951
80.000000	783.178711	46.547497
80.000000	781.992188	54.997086
80.000000	780.805664	48.639240
80.000000	779.618164	57.084118
80.000000	778.430664	50.728886
80.000000	777.243164	52.829514
80.000000	776.054688	52.816437
80.000000	774.866211	52.803356
80.000000	773.677734	61.236721
80.000000	772.489258	48.555019
80.000000	771.299805	44.321854
80.000000	770.110352	63.301231
80.000000	768.919922	48.518906
80.000000	767.730469	48.506863
80.000000	766.540039	54.820232
80.000000	765.348633	50.590725
80.000000	764.158203	48.470734
80.000000	762.966797	61.100086
80.000000	761.774414	58.978519
80.000000	760.583008	63.175556
80.000000	759.390625	63.159840
80.000000	758.198242	63.144123
80.000000	757.005859	37.877041
80.000000	755.812500	44.178875
80.000000	754.619141	58.890491
80.000000	753.424805	63.081230
80.000000	752.231445	50.452400
80.000000	751.037109	58.846455
80.000000	749.842773	54.629501
80.000000	748.647461	73.521362
80.000000	747.452148	58.802402
80.000000	746.256836	56.688152
80.000000	745.060547	52.475918
80.000000	743.865234	44.068752
80.000000	742.668945	56.645657
80.000000	741.471680	71.313721
80.000000	740.274414	69.198944
80.000000	739.077148	60.795967
80.000000	737.879883	54.493080
80.000000	736.681641	46.097977
80.000000	735.484375	60.750290
80.000000	734.285156	60.735058
80.000000	733.086914	52.344677
80.000000	731.887695	50.238285
80.000000	730.688477	75.338509
80.000000	729.488281	56.489697
80.000000	728.288086	71.117310
80.000000	727.087891	58.552479
80.000000	725.887695	73.172203
80.000000	724.686523	56.432934
80.000000	723.485352	62.687485
80.000000	722.284180	58.493599
80.000000	721.082031	62.655933
80.000000	719.879883	60.552151
80.000000	718.677734	52.186977
80.000000	717.474609	60.521641
80.000000	716.272461	52.160671
80.000000	715.068359	43.803913
80.000000	713.865234	50.048985
80.000000	712.661133	41.696960
80.000000	711.457031	66.698288
80.000000	710.251953	52.094875
80.000000	709.047852	60.414787
80.000000	707.842773	43.737579
80.000000	706.636719	54.137592
80.000000	705.431641	62.450649
80.000000	704.225586	62.434845
80.000000	703.018555	56.177132
80.000000	701.812500	47.842472
80.000000	700.605469	60.307831
80.000000	699.397461	54.055386
80.000000	698.190430	56.120205
80.000000	696.982422	64.417961
80.000000	695.774414	47.781841
80.000000	694.565430	62.308319
80.000000	693.356445	53.986828
80.000000	692.147461	58.124886
80.000000	690.938477	58.110111
80.000000	689.728516	51.870834
80.000000	688.518555	43.560417
80.000000	687.308594	60.139553
80.000000	686.097656	58.050995
80.000000	684.886719	47.672600
80.000000	683.674805	66.310196
80.000000	682.463867	55.934967
80.000000	681.251953	68.347527
80.000000	680.040039	49.694611
80.000000	678.827148	55.892170
80.000000	677.614258	57.947453
80.000000	676.401367	55.863628
80.000000	675.187500	37.232903
80.000000	673.973633	55.835079
80.000000	672.759766	70.292862
80.000000	671.545898	57.873428
80.000000	670.331055	57.858616
80.000000	669.116211	47.514553
80.000000	667.900391	43.371742
80.000000	666.684570	55.749378
80.000000	665.468750	59.863613
80.000000	664.252930	47.465862
80.000000	663.036133	47.453682
80.000000	661.819336	53.629528
80.000000	660.602539	55.677902
80.000000	659.384766	47.417141
80.000000	658.166992	51.527122
80.000000	656.948242	51.513878
80.000000	655.730469	49.440601
80.000000	654.511719	55.606369
80.000000	653.291992	57.651020
80.000000	652.073242	49.402435
80.000000	650.853516	59.679230
80.000000	649.633789	57.606476
80.000000	648.413086	47.307404
80.000000	647.192383	43.182575
80.000000	645.971680	57.561909
80.000000	644.750000	47.270790
80.000000	643.528320	49.313301
80.000000	642.306641	49.300560
80.000000	641.084961	67.770752
80.000000	639.862305	65.700096
80.000000	638.639648	51.314919
80.000000	637.416016	53.353706
80.000000	636.192383	63.597561
80.000000	634.968750	57.428078
80.000000	633.745117	47.160839
80.000000	632.520508	47.148613
80.000000	631.295898	55.334015
80.000000	630.070313	43.026402
80.000000	628.844727	57.353642
80.000000	627.619141	53.243122
80.000000	626.393555	55.276569
80.000000	625.166992	49.121956
80.000000	623.940430	57.294048
80.000000	622.712891	59.324825
80.000000	621.486328	57.264236
80.000000	620.258789	42.936993
80.000000	619.030273	63.366669
80.000000	617.802734	61.306602
80.000000	616.573242	57.204578
80.000000	615.344727	51.062195
80.000000	614.115234	59.216690
